STUDYID,DOMAIN,USUBJID,EXSEQ,EXTRT,EXDOSE,EXDOSTXT,EXDOSU,EXDOSFRM,EXSTDTC,EXENDTC
ABC,EX,ABC-01-049,1,ARM D,,0-15,ug/g,CREAM,2006-11-07,2007-02-08
ABC,EX,ABC-01-050,1,ARM B,,0-15,ug/g,CREAM,2006-11-02,2007-01-29
ABC,EX,ABC-01-051,1,ARM A,,0-15,ug/g,CREAM,2006-11-02,2007-01-29
ABC,EX,ABC-01-052,1,ARM C,,0-15,ug/g,CREAM,2006-11-06,2007-01-31
ABC,EX,ABC-01-053,1,ARM B,,0-15,ug/g,CREAM,2006-11-08,2006-12-12
ABC,EX,ABC-01-054,1,ARM D,,0-15,ug/g,CREAM,2006-11-16,2007-02-20
ABC,EX,ABC-01-055,1,ARM C,,0-15,ug/g,CREAM,2006-11-21,2007-02-28
ABC,EX,ABC-01-056,1,ARM A,,0-15,ug/g,CREAM,2006-11-28,2007-02-21
ABC,EX,ABC-01-113,1,ARM D,,0-15,ug/g,CREAM,2006-12-05,2007-03-05
ABC,EX,ABC-01-114,1,ARM B,,0-15,ug/g,CREAM,2006-12-14,2007-03-04
ABC,EX,ABC-02-033,1,ARM C,,0-15,ug/g,CREAM,2006-10-25,2007-01-17
ABC,EX,ABC-02-034,1,ARM A,,0-15,ug/g,CREAM,2006-10-26,2007-01-17
ABC,EX,ABC-02-035,1,ARM B,,0-15,ug/g,CREAM,2006-10-31,2007-01-22
ABC,EX,ABC-02-036,1,ARM D,,0-15,ug/g,CREAM,2006-11-01,2007-01-23
ABC,EX,ABC-02-037,1,ARM C,,0-15,ug/g,CREAM,2006-11-01,2007-01-18
ABC,EX,ABC-02-038,1,ARM A,,0-15,ug/g,CREAM,2006-11-13,2007-02-06
ABC,EX,ABC-02-039,1,ARM B,,0-15,ug/g,CREAM,2006-11-15,2007-02-06
ABC,EX,ABC-02-040,1,ARM D,,0-15,ug/g,CREAM,2006-12-07,2007-02-28
ABC,EX,ABC-02-109,1,ARM A,,0-15,ug/g,CREAM,2006-12-07,2007-02-28
ABC,EX,ABC-02-110,1,ARM B,,0-15,ug/g,CREAM,2006-12-18,2007-03-12
ABC,EX,ABC-02-111,1,ARM D,,0-15,ug/g,CREAM,2006-12-19,2007-03-15
ABC,EX,ABC-02-112,1,ARM C,,0-15,ug/g,CREAM,2006-12-19,2007-03-14
ABC,EX,ABC-03-001,1,ARM B,,0-15,ug/g,CREAM,2006-10-10,2007-01-01
ABC,EX,ABC-03-002,1,ARM A,,0-15,ug/g,CREAM,2006-10-11,2007-01-01
ABC,EX,ABC-03-003,1,ARM D,,0-15,ug/g,CREAM,2006-10-11,2007-01-02
ABC,EX,ABC-03-004,1,ARM C,,0-15,ug/g,CREAM,2006-10-12,2007-01-03
ABC,EX,ABC-03-006,1,ARM A,,0-15,ug/g,CREAM,2006-10-25,2007-01-16
ABC,EX,ABC-03-007,1,ARM B,,0-15,ug/g,CREAM,2006-10-31,2007-01-21
ABC,EX,ABC-03-008,1,ARM D,,0-15,ug/g,CREAM,2006-11-02,2006-11-09
ABC,EX,ABC-03-089,1,ARM D,,0-15,ug/g,CREAM,2006-11-21,2007-02-12
ABC,EX,ABC-03-090,1,,,0-15,ug/g,CREAM,2006-12-06,2007-02-27
ABC,EX,ABC-03-091,1,ARM A,,0-15,ug/g,CREAM,2006-12-20,2007-03-13
ABC,EX,ABC-04-073,1,ARM D,,0-15,ug/g,CREAM,2006-10-31,2007-01-24
ABC,EX,ABC-04-074,1,ARM C,,0-15,ug/g,CREAM,2006-11-01,2006-11-08
ABC,EX,ABC-04-075,1,ARM A,,0-15,ug/g,CREAM,2006-11-09,2007-02-08
ABC,EX,ABC-04-076,1,ARM B,,0-15,ug/g,CREAM,2006-11-15,2007-02-07
ABC,EX,ABC-04-077,1,ARM C,,0-15,ug/g,CREAM,2006-11-15,2007-02-11
ABC,EX,ABC-04-078,1,ARM D,,0-15,ug/g,CREAM,2006-12-13,2007-03-07
ABC,EX,ABC-04-079,1,ARM B,,0-15,ug/g,CREAM,2006-12-18,2007-03-13
ABC,EX,ABC-04-080,1,ARM A,,0-15,ug/g,CREAM,2006-12-21,2007-03-13
ABC,EX,ABC-04-125,1,ARM D,,0-15,ug/g,CREAM,2006-12-29,2007-03-23
ABC,EX,ABC-04-126,1,ARM A,,0-15,ug/g,CREAM,2007-01-02,2007-03-27
ABC,EX,ABC-04-127,1,ARM B,,0-15,ug/g,CREAM,2007-01-03,2007-04-06
ABC,EX,ABC-04-129,1,ARM D,,0-15,ug/g,CREAM,2007-01-05,2007-03-28
ABC,EX,ABC-04-130,1,ARM C,,0-15,ug/g,CREAM,2007-01-08,2007-04-02
ABC,EX,ABC-04-131,1,ARM B,,0-15,ug/g,CREAM,2007-01-10,2007-04-04
ABC,EX,ABC-06-065,1,ARM C,,0-15,ug/g,CREAM,2006-11-08,2007-01-31
ABC,EX,ABC-06-066,1,ARM B,,0-15,ug/g,CREAM,2006-11-14,2007-02-08
ABC,EX,ABC-06-067,1,ARM D,,0-15,ug/g,CREAM,2006-11-21,2007-02-12
ABC,EX,ABC-06-068,1,ARM A,,0-15,ug/g,CREAM,2006-11-22,2007-02-15
ABC,EX,ABC-06-069,1,ARM A,,0-15,ug/g,CREAM,2006-11-27,2007-01-04
ABC,EX,ABC-06-070,1,ARM B,,0-15,ug/g,CREAM,2006-11-29,2007-02-20
ABC,EX,ABC-06-071,1,ARM D,,0-15,ug/g,CREAM,2006-11-29,2007-02-21
ABC,EX,ABC-06-072,1,ARM C,,0-15,ug/g,CREAM,2006-12-05,2007-02-27
ABC,EX,ABC-06-161,1,ARM C,,0-15,ug/g,CREAM,2006-12-12,2007-01-03
ABC,EX,ABC-06-162,1,,,0-15,ug/g,CREAM,2006-12-28,2007-03-21
ABC,EX,ABC-06-163,1,ARM D,,0-15,ug/g,CREAM,2007-01-08,2007-04-01
ABC,EX,ABC-07-009,1,ARM C,,0-15,ug/g,CREAM,2006-10-18,2007-01-10
ABC,EX,ABC-07-010,1,ARM B,,0-15,ug/g,CREAM,2006-11-22,2007-02-07
ABC,EX,ABC-07-011,1,ARM D,,0-15,ug/g,CREAM,2006-11-22,2007-02-07
ABC,EX,ABC-07-012,1,ARM A,,0-15,ug/g,CREAM,2006-12-13,2007-03-07
ABC,EX,ABC-07-013,1,ARM D,,0-15,ug/g,CREAM,2006-12-18,2007-03-12
ABC,EX,ABC-07-014,1,ARM C,,0-15,ug/g,CREAM,2006-12-18,2007-03-12
ABC,EX,ABC-07-015,1,ARM B,,0-15,ug/g,CREAM,2006-12-20,2007-03-20
ABC,EX,ABC-07-016,1,ARM A,,0-15,ug/g,CREAM,2006-12-26,2007-03-18
ABC,EX,ABC-08-101,1,ARM C,,0-15,ug/g,CREAM,2006-11-07,2007-01-30
ABC,EX,ABC-08-102,1,ARM D,,0-15,ug/g,CREAM,2006-11-09,2007-01-30
ABC,EX,ABC-08-103,1,ARM B,,0-15,ug/g,CREAM,2006-11-09,2007-01-30
ABC,EX,ABC-08-104,1,ARM A,,0-15,ug/g,CREAM,2006-11-09,2007-02-08
ABC,EX,ABC-08-105,1,ARM C,,0-15,ug/g,CREAM,2006-11-13,2007
ABC,EX,ABC-08-106,1,ARM A,,0-15,ug/g,CREAM,2006-11-14,2007-02-04
ABC,EX,ABC-08-107,1,ARM D,,0-15,ug/g,CREAM,2006-11-21,2007-01-03
ABC,EX,ABC-08-108,1,ARM B,,0-15,ug/g,CREAM,2006-12-22,2007
ABC,EX,ABC-09-017,1,ARM C,,0-15,ug/g,CREAM,2006-10-18,2007-01-10
ABC,EX,ABC-09-018,1,ARM B,,0-15,ug/g,CREAM,2006-10-18,2007-01-09
ABC,EX,ABC-09-019,1,ARM D,,0-15,ug/g,CREAM,2006-10-18,2007-01-10
ABC,EX,ABC-09-020,1,ARM A,,0-15,ug/g,CREAM,2006-10-18,2007-01-09
ABC,EX,ABC-09-021,1,ARM B,,0-15,ug/g,CREAM,2006-11-01,2006-11-01
ABC,EX,ABC-09-023,1,ARM A,,0-15,ug/g,CREAM,2006-11-16,2007-02-09
ABC,EX,ABC-09-024,1,ARM C,,0-15,ug/g,CREAM,2006-11-16,2007-02-08
ABC,EX,ABC-09-137,1,ARM A,,0-15,ug/g,CREAM,2006-11-21,2007-02-14
ABC,EX,ABC-09-138,1,ARM D,,0-15,ug/g,CREAM,2006-11-21,2007-02-14
ABC,EX,ABC-09-139,1,ARM C,,0-15,ug/g,CREAM,2006-11-21,2007-02-15
ABC,EX,ABC-09-140,1,ARM B,,0-15,ug/g,CREAM,2006-11-28,2007-02-19
