STUDYID,DOMAIN,USUBJID,VISITNUM,VISIT,SVSTDTC,SVENDTC,SVSTDY,SVENDY,SVUPDES
ABC,SV,ABC-01-049,0,SCREENING,2006-10-25,2006-10-26,-13,-12,
ABC,SV,ABC-01-049,1,DAY 1,2006-11-07,2006-11-07,1,1,
ABC,SV,ABC-01-049,2,WEEK 2,2006-11-21,2006-11-28,15,22,
ABC,SV,ABC-01-049,4,WEEK 4,2006-12-07,2006-12-07,31,31,
ABC,SV,ABC-01-049,6,WEEK 6,2006-12-28,2006-12-28,52,52,
ABC,SV,ABC-01-049,8,WEEK 8,2007-01-11,2007-01-11,66,66,
ABC,SV,ABC-01-049,12,WEEK 12,2007-02-09,2007-02-20,95,106,
ABC,SV,ABC-01-049,16,WEEK 16,2007-03-13,2007-03-13,127,127,
ABC,SV,ABC-01-049,99,UNSCHEDULED 1,2006-10-31,2006-10-31,-7,-7,EVALUATION OF LABS
ABC,SV,ABC-01-050,0,SCREENING,2006-10-25,2006-10-25,-8,-8,
ABC,SV,ABC-01-050,1,DAY 1,2006-11-02,2006-11-02,1,1,
ABC,SV,ABC-01-050,2,WEEK 2,2006-11-16,2006-11-16,15,15,
ABC,SV,ABC-01-050,4,WEEK 4,2006-11-30,2006-11-30,29,29,
ABC,SV,ABC-01-050,6,WEEK 6,2006-12-14,2006-12-14,43,43,
ABC,SV,ABC-01-050,8,WEEK 8,2006-12-28,2006-12-28,57,57,
ABC,SV,ABC-01-050,12,WEEK 12,2007-01-30,2007-01-30,90,90,
ABC,SV,ABC-01-050,16,WEEK 16,2007-03-08,2007-03-08,127,127,
ABC,SV,ABC-01-051,0,SCREENING,2006-10-25,2006-10-25,-8,-8,
ABC,SV,ABC-01-051,1,DAY 1,2006-11-02,2006-11-02,1,1,
ABC,SV,ABC-01-051,2,WEEK 2,2006-11-16,2006-11-16,15,15,
ABC,SV,ABC-01-051,4,WEEK 4,2006-11-30,2006-11-30,29,29,
ABC,SV,ABC-01-051,6,WEEK 6,2006-12-14,2006-12-14,43,43,
ABC,SV,ABC-01-051,8,WEEK 8,2006-12-28,2006-12-28,57,57,
ABC,SV,ABC-01-051,12,WEEK 12,2007-01-30,2007-01-30,90,90,
ABC,SV,ABC-01-051,16,WEEK 16,2007-03-08,2007-03-08,127,127,
ABC,SV,ABC-01-051,99,UNSCHEDULED 1,2006-11-16,2006-11-16,15,15,EVALUATION OF LABS
ABC,SV,ABC-01-052,0,SCREENING,2006-10-31,2006-10-31,-6,-6,
ABC,SV,ABC-01-052,1,DAY 1,2006-11-06,2006-11-06,1,1,
ABC,SV,ABC-01-052,2,WEEK 2,2006-11-22,2006-11-27,17,22,
ABC,SV,ABC-01-052,4,WEEK 4,2006-12-04,2006-12-04,29,29,
ABC,SV,ABC-01-052,6,WEEK 6,2006-12-21,2006-12-21,46,46,
ABC,SV,ABC-01-052,8,WEEK 8,2007-01-03,2007-01-03,59,59,
ABC,SV,ABC-01-052,12,WEEK 12,2007-01-30,2007-01-31,86,87,
ABC,SV,ABC-01-052,16,WEEK 16,2007-03-05,2007-03-05,120,120,
ABC,SV,ABC-01-052,99,UNSCHEDULED 1,2006-11-27,2006-11-27,22,22,EVALUATION OF LABS
ABC,SV,ABC-01-052,100,UNSCHEDULED 2,2006-11-29,2006-11-29,24,24,EVALUATION OF LABS
ABC,SV,ABC-01-053,0,SCREENING,2006-11-01,2006-11-06,-7,-2,
ABC,SV,ABC-01-053,1,DAY 1,2006-11-08,2006-11-08,1,1,
ABC,SV,ABC-01-053,2,WEEK 2,2006-11-22,2006-11-27,15,20,
ABC,SV,ABC-01-053,4,WEEK 4,2006-12-12,2006-12-12,35,35,
ABC,SV,ABC-01-053,99,UNSCHEDULED 1,2006-11-06,2006-11-06,-2,-2,EVALUATION OF LABS
ABC,SV,ABC-01-054,0,SCREENING,2006-11-07,2006-11-07,-9,-9,
ABC,SV,ABC-01-054,1,DAY 1,2006-11-16,2006-11-16,1,1,
ABC,SV,ABC-01-054,2,WEEK 2,2006-11-30,2006-11-30,15,15,
ABC,SV,ABC-01-054,4,WEEK 4,2006-12-14,2006-12-14,29,29,
ABC,SV,ABC-01-054,6,WEEK 6,2006-12-28,2006-12-28,43,43,
ABC,SV,ABC-01-054,8,WEEK 8,2007-01-29,2007-01-29,75,75,
ABC,SV,ABC-01-054,12,WEEK 12,2007-02-20,2007-02-20,97,97,
ABC,SV,ABC-01-054,16,WEEK 16,2007-04-04,2007-04-04,140,140,
ABC,SV,ABC-01-055,0,SCREENING,2006-10-31,2006-11-14,-36,-22,
ABC,SV,ABC-01-055,1,DAY 1,2006-11-21,2006-12-06,-15,1,
ABC,SV,ABC-01-055,2,WEEK 2,2006-12-18,2006-12-18,13,13,
ABC,SV,ABC-01-055,4,WEEK 4,2007-01-03,2007-01-03,29,29,
ABC,SV,ABC-01-055,6,WEEK 6,2007-01-23,2007-01-24,49,50,
ABC,SV,ABC-01-055,8,WEEK 8,2007-02-09,2007-02-09,66,66,
ABC,SV,ABC-01-055,12,WEEK 12,2007-03-28,2007-03-29,113,114,
ABC,SV,ABC-01-055,16,WEEK 16,2007-04-23,2007-04-23,139,139,
ABC,SV,ABC-01-056,0,SCREENING,2006-11-21,2006-11-21,-7,-7,
ABC,SV,ABC-01-056,1,DAY 1,2006-11-28,2006-11-28,1,1,
ABC,SV,ABC-01-056,2,WEEK 2,2006-12-13,2006-12-13,16,16,
ABC,SV,ABC-01-056,4,WEEK 4,2006-12-27,2006-12-27,30,30,
ABC,SV,ABC-01-056,6,WEEK 6,2007-01-10,2007-01-10,44,44,
ABC,SV,ABC-01-056,8,WEEK 8,2007-01-24,2007-01-24,58,58,
ABC,SV,ABC-01-056,12,WEEK 12,2007-02-21,2007-02-21,86,86,
ABC,SV,ABC-01-056,16,WEEK 16,2007-03-22,2007-03-22,115,115,
ABC,SV,ABC-01-113,0,SCREENING,2006-11-28,2006-11-28,-7,-7,
ABC,SV,ABC-01-113,1,DAY 1,2006-12-05,2006-12-05,1,1,
ABC,SV,ABC-01-113,2,WEEK 2,2006-12-19,2006-12-19,15,15,
ABC,SV,ABC-01-113,4,WEEK 4,2007-01-03,2007-01-03,30,30,
ABC,SV,ABC-01-113,6,WEEK 6,2007-01-22,2007-01-24,49,51,
ABC,SV,ABC-01-113,8,WEEK 8,2007-02-07,2007-02-07,65,65,
ABC,SV,ABC-01-113,12,WEEK 12,2007-03-06,2007-03-06,92,92,
ABC,SV,ABC-01-113,16,WEEK 16,2007-04-03,2007-04-03,120,120,
ABC,SV,ABC-01-114,0,SCREENING,2006-12-01,2006-12-04,-13,-10,
ABC,SV,ABC-01-114,1,DAY 1,2006-12-14,2006-12-14,1,1,
ABC,SV,ABC-01-114,2,WEEK 2,2006-12-28,2006-12-28,15,15,
ABC,SV,ABC-01-114,4,WEEK 4,2007-01-11,2007-01-11,29,29,
ABC,SV,ABC-01-114,6,WEEK 6,2007-01-24,2007-01-24,42,42,
ABC,SV,ABC-01-114,8,WEEK 8,2007-02-09,2007-02-09,58,58,
ABC,SV,ABC-01-114,12,WEEK 12,2007-03-05,2007-03-05,82,82,
ABC,SV,ABC-01-114,16,WEEK 16,2007-03-29,2007-03-29,106,106,
ABC,SV,ABC-02-033,0,SCREENING,2006-10-16,2006-10-16,-9,-9,
ABC,SV,ABC-02-033,1,DAY 1,2006-10-25,2006-10-25,1,1,
ABC,SV,ABC-02-033,2,WEEK 2,2006-11-07,2006-11-07,14,14,
ABC,SV,ABC-02-033,4,WEEK 4,2006-11-21,2006-11-21,28,28,
ABC,SV,ABC-02-033,6,WEEK 6,2006-12-06,2006-12-06,43,43,
ABC,SV,ABC-02-033,8,WEEK 8,2006-12-19,2006-12-19,56,56,
ABC,SV,ABC-02-033,12,WEEK 12,2007-01-17,2007-01-17,85,85,
ABC,SV,ABC-02-033,16,WEEK 16,2007-02-13,2007-02-13,112,112,
ABC,SV,ABC-02-034,0,SCREENING,2006-10-16,2006-10-16,-10,-10,
ABC,SV,ABC-02-034,1,DAY 1,2006-10-26,2006-10-26,1,1,
ABC,SV,ABC-02-034,2,WEEK 2,2006-11-08,2006-11-08,14,14,
ABC,SV,ABC-02-034,4,WEEK 4,2006-11-21,2006-11-21,27,27,
ABC,SV,ABC-02-034,6,WEEK 6,2006-12-06,2006-12-06,42,42,
ABC,SV,ABC-02-034,8,WEEK 8,2006-12-19,2006-12-19,55,55,
ABC,SV,ABC-02-034,12,WEEK 12,2007-01-18,2007-01-18,85,85,
ABC,SV,ABC-02-034,16,WEEK 16,2007-02-15,2007-02-15,113,113,
ABC,SV,ABC-02-035,0,SCREENING,2006-10-16,2006-10-16,-15,-15,
ABC,SV,ABC-02-035,1,DAY 1,2006-10-31,2006-10-31,1,1,
ABC,SV,ABC-02-035,2,WEEK 2,2006-11-15,2006-11-15,16,16,
ABC,SV,ABC-02-035,4,WEEK 4,2006-11-28,2006-11-28,29,29,
ABC,SV,ABC-02-035,6,WEEK 6,2006-12-12,2006-12-12,43,43,
ABC,SV,ABC-02-035,8,WEEK 8,2006-12-28,2006-12-28,59,59,
ABC,SV,ABC-02-035,12,WEEK 12,2007-01-23,2007-01-23,85,85,
ABC,SV,ABC-02-035,16,WEEK 16,2007-02-20,2007-02-20,113,113,
ABC,SV,ABC-02-036,0,SCREENING,2006-10-23,2006-10-23,-9,-9,
ABC,SV,ABC-02-036,1,DAY 1,2006-11-01,2006-11-01,1,1,
ABC,SV,ABC-02-036,2,WEEK 2,2006-11-15,2006-11-15,15,15,
ABC,SV,ABC-02-036,4,WEEK 4,2006-11-29,2006-11-29,29,29,
ABC,SV,ABC-02-036,6,WEEK 6,2006-12-14,2006-12-14,44,44,
ABC,SV,ABC-02-036,8,WEEK 8,2006-12-28,2006-12-28,58,58,
ABC,SV,ABC-02-036,12,WEEK 12,2007-01-24,2007-01-24,85,85,
ABC,SV,ABC-02-036,16,WEEK 16,2007-02-21,2007-02-21,113,113,
ABC,SV,ABC-02-037,0,SCREENING,2006-10-24,2006-10-24,-8,-8,
ABC,SV,ABC-02-037,1,DAY 1,2006-11-01,2006-11-01,1,1,
ABC,SV,ABC-02-037,2,WEEK 2,2006-11-14,2006-11-14,14,14,
ABC,SV,ABC-02-037,4,WEEK 4,2006-11-30,2006-11-30,30,30,
ABC,SV,ABC-02-037,6,WEEK 6,2006-12-14,2006-12-14,44,44,
ABC,SV,ABC-02-037,8,WEEK 8,2006-12-28,2006-12-28,58,58,
ABC,SV,ABC-02-037,12,WEEK 12,2007-01-19,2007-01-19,80,80,
ABC,SV,ABC-02-037,16,WEEK 16,2007-02-15,2007-02-15,107,107,
ABC,SV,ABC-02-038,0,SCREENING,2006-10-30,2006-10-30,-14,-14,
ABC,SV,ABC-02-038,1,DAY 1,2006-11-13,2006-11-13,1,1,
ABC,SV,ABC-02-038,2,WEEK 2,2006-11-27,2006-11-27,15,15,
ABC,SV,ABC-02-038,4,WEEK 4,2006-12-11,2006-12-11,29,29,
ABC,SV,ABC-02-038,6,WEEK 6,2006-12-27,2007-01-02,45,51,
ABC,SV,ABC-02-038,8,WEEK 8,2007-01-08,2007-01-08,57,57,
ABC,SV,ABC-02-038,12,WEEK 12,2007-02-07,2007-02-07,87,87,
ABC,SV,ABC-02-038,16,WEEK 16,2007-03-03,2007-03-03,111,111,
ABC,SV,ABC-02-038,20,END OF STUDY EARLY TERMINATION,2007-03-05,2007-03-05,113,113,
ABC,SV,ABC-02-039,0,SCREENING,2006-11-06,2006-11-06,-9,-9,
ABC,SV,ABC-02-039,1,DAY 1,2006-11-15,2006-11-15,1,1,
ABC,SV,ABC-02-039,2,WEEK 2,2006-11-30,2006-11-30,16,16,
ABC,SV,ABC-02-039,4,WEEK 4,2006-12-12,2006-12-12,28,28,
ABC,SV,ABC-02-039,6,WEEK 6,2006-12-28,2006-12-28,44,44,
ABC,SV,ABC-02-039,8,WEEK 8,2007-01-10,2007-01-10,57,57,
ABC,SV,ABC-02-039,12,WEEK 12,2007-02-07,2007-02-08,85,86,
ABC,SV,ABC-02-039,16,WEEK 16,2007-03-06,2007-03-06,112,112,
ABC,SV,ABC-02-039,99,UNSCHEDULED 1,2006-11-30,2006-11-30,16,16,EVALUATION OF LABS
ABC,SV,ABC-02-040,0,SCREENING,2006-11-29,2006-11-29,-8,-8,
ABC,SV,ABC-02-040,1,DAY 1,2006-12-07,2006-12-07,1,1,
ABC,SV,ABC-02-040,2,WEEK 2,2006-12-19,2006-12-19,13,13,
ABC,SV,ABC-02-040,4,WEEK 4,2007-01-05,2007-01-05,30,30,
ABC,SV,ABC-02-040,6,WEEK 6,2007-01-18,2007-01-18,43,43,
ABC,SV,ABC-02-040,8,WEEK 8,2007-01-31,2007-01-31,56,56,
ABC,SV,ABC-02-040,12,WEEK 12,2007-03-01,2007-03-01,85,85,
ABC,SV,ABC-02-040,16,WEEK 16,2007-03-29,2007-03-29,113,113,
ABC,SV,ABC-02-109,0,SCREENING,2006-11-28,2006-11-28,-9,-9,
ABC,SV,ABC-02-109,1,DAY 1,2006-12-07,2006-12-07,1,1,
ABC,SV,ABC-02-109,2,WEEK 2,2006-12-19,2006-12-19,13,13,
ABC,SV,ABC-02-109,4,WEEK 4,2007-01-05,2007-01-05,30,30,
ABC,SV,ABC-02-109,6,WEEK 6,2007-01-18,2007-01-18,43,43,
ABC,SV,ABC-02-109,8,WEEK 8,2007-01-30,2007-01-30,55,55,
ABC,SV,ABC-02-109,12,WEEK 12,2007-03-01,2007-03-01,85,85,
ABC,SV,ABC-02-109,16,WEEK 16,2007-03-28,2007-03-28,112,112,
ABC,SV,ABC-02-110,0,SCREENING,2006-12-11,2006-12-11,-7,-7,
ABC,SV,ABC-02-110,1,DAY 1,2006-12-18,2006-12-18,1,1,
ABC,SV,ABC-02-110,2,WEEK 2,2007-01-02,2007-01-02,16,16,
ABC,SV,ABC-02-110,4,WEEK 4,2007-01-16,2007-01-16,30,30,
ABC,SV,ABC-02-110,6,WEEK 6,2007-01-29,2007-01-29,43,43,
ABC,SV,ABC-02-110,8,WEEK 8,2007-02-12,2007-02-12,57,57,
ABC,SV,ABC-02-110,12,WEEK 12,2007-03-12,2007-03-12,85,85,
ABC,SV,ABC-02-110,16,WEEK 16,2007-04-09,2007-04-09,113,113,
ABC,SV,ABC-02-111,0,SCREENING,2006-12-11,2006-12-11,-8,-8,
ABC,SV,ABC-02-111,1,DAY 1,2006-12-19,2006-12-19,1,1,
ABC,SV,ABC-02-111,2,WEEK 2,2007-01-02,2007-01-02,15,15,
ABC,SV,ABC-02-111,4,WEEK 4,2007-01-16,2007-01-16,29,29,
ABC,SV,ABC-02-111,6,WEEK 6,2007-01-29,2007-01-29,42,42,
ABC,SV,ABC-02-111,8,WEEK 8,2007-02-14,2007-02-14,58,58,
ABC,SV,ABC-02-111,12,WEEK 12,2007-03-16,2007-03-16,88,88,
ABC,SV,ABC-02-111,16,WEEK 16,2007-04-10,2007-04-10,113,113,
ABC,SV,ABC-02-112,0,SCREENING,2006-12-12,2006-12-12,-7,-7,
ABC,SV,ABC-02-112,1,DAY 1,2006-12-19,2006-12-19,1,1,
ABC,SV,ABC-02-112,2,WEEK 2,2007-01-04,2007-01-04,17,17,
ABC,SV,ABC-02-112,4,WEEK 4,2007-01-16,2007-01-16,29,29,
ABC,SV,ABC-02-112,6,WEEK 6,2007-01-31,2007-01-31,44,44,
ABC,SV,ABC-02-112,8,WEEK 8,2007-02-15,2007-02-15,59,59,
ABC,SV,ABC-02-112,12,WEEK 12,2007-03-15,2007-03-15,87,87,
ABC,SV,ABC-02-112,16,WEEK 16,2007-04-10,2007-04-10,113,113,
ABC,SV,ABC-03-001,0,SCREENING,2006-09-26,2006-09-26,-14,-14,
ABC,SV,ABC-03-001,1,DAY 1,2006-10-10,2006-10-10,1,1,
ABC,SV,ABC-03-001,2,WEEK 2,2006-10-24,2006-10-24,15,15,
ABC,SV,ABC-03-001,4,WEEK 4,2006-11-07,2006-11-07,29,29,
ABC,SV,ABC-03-001,6,WEEK 6,2006-11-21,2006-11-21,43,43,
ABC,SV,ABC-03-001,8,WEEK 8,2006-12-05,2006-12-05,57,57,
ABC,SV,ABC-03-001,12,WEEK 12,2007-01-02,2007-01-02,85,85,
ABC,SV,ABC-03-001,16,WEEK 16,2007-01-30,2007-01-30,113,113,
ABC,SV,ABC-03-002,0,SCREENING,2006-09-27,2006-09-27,-14,-14,
ABC,SV,ABC-03-002,1,DAY 1,2006-10-11,2006-10-11,1,1,
ABC,SV,ABC-03-002,2,WEEK 2,2006-10-25,2006-10-25,15,15,
ABC,SV,ABC-03-002,4,WEEK 4,2006-11-08,2006-11-08,29,29,
ABC,SV,ABC-03-002,6,WEEK 6,2006-11-21,2006-11-21,42,42,
ABC,SV,ABC-03-002,8,WEEK 8,2006-12-07,2006-12-07,58,58,
ABC,SV,ABC-03-002,12,WEEK 12,2007-01-02,2007-01-02,84,84,
ABC,SV,ABC-03-002,16,WEEK 16,2007-02-01,2007-02-01,114,114,
ABC,SV,ABC-03-003,0,SCREENING,2006-09-27,2006-09-27,-14,-14,
ABC,SV,ABC-03-003,1,DAY 1,2006-10-11,2006-10-11,1,1,
ABC,SV,ABC-03-003,2,WEEK 2,2006-10-25,2006-10-25,15,15,
ABC,SV,ABC-03-003,4,WEEK 4,2006-11-08,2006-11-08,29,29,
ABC,SV,ABC-03-003,6,WEEK 6,2006-11-21,2006-11-21,42,42,
ABC,SV,ABC-03-003,8,WEEK 8,2006-12-06,2006-12-06,57,57,
ABC,SV,ABC-03-003,12,WEEK 12,2007-01-03,2007-01-03,85,85,
ABC,SV,ABC-03-003,16,WEEK 16,2007-01-31,2007-01-31,113,113,
ABC,SV,ABC-03-004,0,SCREENING,2006-09-27,2006-09-27,-15,-15,
ABC,SV,ABC-03-004,1,DAY 1,2006-10-12,2006-10-12,1,1,
ABC,SV,ABC-03-004,2,WEEK 2,2006-10-26,2006-10-26,15,15,
ABC,SV,ABC-03-004,4,WEEK 4,2006-11-09,2006-11-09,29,29,
ABC,SV,ABC-03-004,6,WEEK 6,2006-11-21,2006-11-21,41,41,
ABC,SV,ABC-03-004,8,WEEK 8,2006-12-07,2006-12-07,57,57,
ABC,SV,ABC-03-004,12,WEEK 12,2007-01-04,2007-01-04,85,85,
ABC,SV,ABC-03-004,16,WEEK 16,2007-02-01,2007-02-01,113,113,
ABC,SV,ABC-03-005,0,SCREENING,2006-09-27,2006-09-27,-15,-15,
ABC,SV,ABC-03-005,1,DAY 1,2006-10-12,2006-10-12,1,1,
ABC,SV,ABC-03-005,20,END OF STUDY EARLY TERMINATION,2006-12-04,2006-12-04,54,54,
ABC,SV,ABC-03-006,0,SCREENING,2006-10-18,2006-10-18,-7,-7,
ABC,SV,ABC-03-006,1,DAY 1,2006-10-25,2006-10-25,1,1,
ABC,SV,ABC-03-006,2,WEEK 2,2006-11-06,2006-11-06,13,13,
ABC,SV,ABC-03-006,4,WEEK 4,2006-11-20,2006-11-20,27,27,
ABC,SV,ABC-03-006,6,WEEK 6,2006-12-06,2006-12-06,43,43,
ABC,SV,ABC-03-006,8,WEEK 8,2006-12-20,2006-12-20,57,57,
ABC,SV,ABC-03-006,12,WEEK 12,2007-01-17,2007-01-17,85,85,
ABC,SV,ABC-03-006,16,WEEK 16,2007-02-15,2007-02-15,114,114,
ABC,SV,ABC-03-006,99,UNSCHEDULED 1,2007-01-17,2007-01-17,85,85,EVALUATION OF LABS
ABC,SV,ABC-03-007,0,SCREENING,2006-10-27,2006-10-27,-4,-4,
ABC,SV,ABC-03-007,1,DAY 1,2006-10-31,2006-10-31,1,1,
ABC,SV,ABC-03-007,2,WEEK 2,2006-11-15,2006-11-15,16,16,
ABC,SV,ABC-03-007,4,WEEK 4,2006-11-28,2006-11-28,29,29,
ABC,SV,ABC-03-007,6,WEEK 6,2006-12-12,2006-12-12,43,43,
ABC,SV,ABC-03-007,8,WEEK 8,2006-12-27,2006-12-27,58,58,
ABC,SV,ABC-03-007,12,WEEK 12,2007-01-23,2007-01-23,85,85,
ABC,SV,ABC-03-007,16,WEEK 16,2007-02-20,2007-02-20,113,113,
ABC,SV,ABC-03-008,0,SCREENING,2006-10-18,2006-10-18,-15,-15,
ABC,SV,ABC-03-008,1,DAY 1,2006-11-02,2006-11-02,1,1,
ABC,SV,ABC-03-008,16,WEEK 16,2006-12-07,2006-12-07,36,36,
ABC,SV,ABC-03-008,20,END OF STUDY EARLY TERMINATION,2006-11-09,2006-11-09,8,8,
ABC,SV,ABC-03-008,99,UNSCHEDULED 1,2006-11-09,2006-11-09,8,8,EVALUATION OF LABS
ABC,SV,ABC-03-089,0,SCREENING,2006-11-15,2006-11-15,-6,-6,
ABC,SV,ABC-03-089,1,DAY 1,2006-11-21,2006-11-21,1,1,
ABC,SV,ABC-03-089,2,WEEK 2,2006-12-05,2006-12-05,15,15,
ABC,SV,ABC-03-089,4,WEEK 4,2006-12-19,2006-12-19,29,29,
ABC,SV,ABC-03-089,6,WEEK 6,2007-01-02,2007-01-02,43,43,
ABC,SV,ABC-03-089,8,WEEK 8,2007-01-16,2007-01-16,57,57,
ABC,SV,ABC-03-089,12,WEEK 12,2007-02-13,2007-02-13,85,85,
ABC,SV,ABC-03-089,16,WEEK 16,2007-03-13,2007-03-13,113,113,
ABC,SV,ABC-03-090,0,SCREENING,2006-11-30,2006-11-30,-6,-6,
ABC,SV,ABC-03-090,1,DAY 1,2006-12-06,2006-12-06,1,1,
ABC,SV,ABC-03-090,2,WEEK 2,2006-12-20,2006-12-20,15,15,
ABC,SV,ABC-03-090,4,WEEK 4,2007-01-03,2007-01-03,29,29,
ABC,SV,ABC-03-090,6,WEEK 6,2007-01-17,2007-01-17,43,43,
ABC,SV,ABC-03-090,8,WEEK 8,2007-01-31,2007-01-31,57,57,
ABC,SV,ABC-03-090,12,WEEK 12,2007-02-28,2007-02-28,85,85,
ABC,SV,ABC-03-090,16,WEEK 16,2007-03-28,2007-03-28,113,113,
ABC,SV,ABC-03-091,0,SCREENING,2006-12-11,2006-12-11,-9,-9,
ABC,SV,ABC-03-091,1,DAY 1,2006-12-20,2006-12-20,1,1,
ABC,SV,ABC-03-091,2,WEEK 2,2007-01-03,2007-01-03,15,15,
ABC,SV,ABC-03-091,4,WEEK 4,2007-01-17,2007-01-17,29,29,
ABC,SV,ABC-03-091,6,WEEK 6,2007-01-31,2007-01-31,43,43,
ABC,SV,ABC-03-091,8,WEEK 8,2007-02-13,2007-02-13,56,56,
ABC,SV,ABC-03-091,12,WEEK 12,2007-03-13,2007-03-13,84,84,
ABC,SV,ABC-03-091,16,WEEK 16,2007-04-10,2007-04-10,112,112,
ABC,SV,ABC-04-073,0,SCREENING,2006-10-10,2006-10-10,-21,-21,
ABC,SV,ABC-04-073,1,DAY 1,2006-10-31,2006-10-31,1,1,
ABC,SV,ABC-04-073,2,WEEK 2,2006-11-14,2006-11-14,15,15,
ABC,SV,ABC-04-073,4,WEEK 4,2006-11-29,2006-11-29,30,30,
ABC,SV,ABC-04-073,6,WEEK 6,2006-12-13,2006-12-13,44,44,
ABC,SV,ABC-04-073,8,WEEK 8,2006-12-28,2006-12-28,59,59,
ABC,SV,ABC-04-073,12,WEEK 12,2007-01-25,2007-01-25,87,87,
ABC,SV,ABC-04-073,16,WEEK 16,2007-02-21,2007-02-21,114,114,
ABC,SV,ABC-04-074,0,SCREENING,2006-10-16,2006-10-16,-16,-16,
ABC,SV,ABC-04-074,1,DAY 1,2006-11-01,2006-11-01,1,1,
ABC,SV,ABC-04-074,20,END OF STUDY EARLY TERMINATION,2006-11-20,2006-11-20,20,20,
ABC,SV,ABC-04-075,0,SCREENING,2006-11-02,2006-11-02,-7,-7,
ABC,SV,ABC-04-075,1,DAY 1,2006-11-09,2006-11-09,1,1,
ABC,SV,ABC-04-075,2,WEEK 2,2006-11-21,2006-11-21,13,13,
ABC,SV,ABC-04-075,4,WEEK 4,2006-12-04,2006-12-04,26,26,
ABC,SV,ABC-04-075,6,WEEK 6,2006-12-19,2006-12-19,41,41,
ABC,SV,ABC-04-075,8,WEEK 8,2007-01-04,2007-01-04,57,57,
ABC,SV,ABC-04-075,12,WEEK 12,2007-02-09,2007-02-09,93,93,
ABC,SV,ABC-04-075,16,WEEK 16,2007-03-07,2007-03-07,119,119,
ABC,SV,ABC-04-075,99,UNSCHEDULED 1,2006-12-04,2006-12-04,26,26,EVALUATION OF LABS
ABC,SV,ABC-04-076,0,SCREENING,2006-10-26,2006-10-26,-20,-20,
ABC,SV,ABC-04-076,1,DAY 1,2006-11-15,2006-11-15,1,1,
ABC,SV,ABC-04-076,2,WEEK 2,2006-11-30,2006-11-30,16,16,
ABC,SV,ABC-04-076,4,WEEK 4,2006-12-14,2006-12-14,30,30,
ABC,SV,ABC-04-076,6,WEEK 6,2006-12-29,2006-12-29,45,45,
ABC,SV,ABC-04-076,8,WEEK 8,2007-01-11,2007-01-11,58,58,
ABC,SV,ABC-04-076,12,WEEK 12,2007-02-08,2007-02-08,86,86,
ABC,SV,ABC-04-076,16,WEEK 16,2007-03-08,2007-03-08,114,114,
ABC,SV,ABC-04-077,0,SCREENING,2006-11-02,2006-11-02,-13,-13,
ABC,SV,ABC-04-077,1,DAY 1,2006-11-15,2006-11-15,1,1,
ABC,SV,ABC-04-077,2,WEEK 2,2006-12-05,2006-12-05,21,21,
ABC,SV,ABC-04-077,4,WEEK 4,2006-12-15,2006-12-15,31,31,
ABC,SV,ABC-04-077,6,WEEK 6,2006-12-27,2006-12-27,43,43,
ABC,SV,ABC-04-077,8,WEEK 8,2007-01-18,2007-01-18,65,65,
ABC,SV,ABC-04-077,12,WEEK 12,2007-02-12,2007-02-12,90,90,
ABC,SV,ABC-04-077,16,WEEK 16,2007-03-12,2007-03-12,118,118,
ABC,SV,ABC-04-077,99,UNSCHEDULED 1,2007-01-18,2007-01-18,65,65,EVALUATION OF LABS
ABC,SV,ABC-04-078,0,SCREENING,2006-11-21,2006-11-21,-22,-22,
ABC,SV,ABC-04-078,1,DAY 1,2006-12-13,2006-12-13,1,1,
ABC,SV,ABC-04-078,2,WEEK 2,2006-12-28,2006-12-28,16,16,
ABC,SV,ABC-04-078,4,WEEK 4,2007-01-10,2007-01-10,29,29,
ABC,SV,ABC-04-078,6,WEEK 6,2007-01-25,2007-01-25,44,44,
ABC,SV,ABC-04-078,8,WEEK 8,2007-02-08,2007-02-08,58,58,
ABC,SV,ABC-04-078,12,WEEK 12,2007-03-08,2007-03-08,86,86,
ABC,SV,ABC-04-078,16,WEEK 16,2007-04-04,2007-04-04,113,113,
ABC,SV,ABC-04-078,99,UNSCHEDULED 1,2007-04-04,2007-04-04,113,113,EVALUATION OF LABS
ABC,SV,ABC-04-079,0,SCREENING,2006-12-11,2006-12-11,-7,-7,
ABC,SV,ABC-04-079,1,DAY 1,2006-12-18,2006-12-18,1,1,
ABC,SV,ABC-04-079,2,WEEK 2,2007-01-02,2007-01-02,16,16,
ABC,SV,ABC-04-079,4,WEEK 4,2007-01-15,2007-01-15,29,29,
ABC,SV,ABC-04-079,6,WEEK 6,2007-02-01,2007-02-01,46,46,
ABC,SV,ABC-04-079,8,WEEK 8,2007-02-14,2007-02-14,59,59,
ABC,SV,ABC-04-079,12,WEEK 12,2007-03-14,2007-03-14,87,87,
ABC,SV,ABC-04-079,16,WEEK 16,2007-04-12,2007-04-12,116,116,
ABC,SV,ABC-04-079,99,UNSCHEDULED 1,2007-04-12,2007-04-12,116,116,EVALUATION OF LABS
ABC,SV,ABC-04-080,0,SCREENING,2006-12-12,2006-12-12,-9,-9,
ABC,SV,ABC-04-080,1,DAY 1,2006-12-21,2006-12-21,1,1,
ABC,SV,ABC-04-080,2,WEEK 2,2007-01-04,2007-01-04,15,15,
ABC,SV,ABC-04-080,4,WEEK 4,2007-01-18,2007-01-18,29,29,
ABC,SV,ABC-04-080,6,WEEK 6,2007-01-31,2007-01-31,42,42,
ABC,SV,ABC-04-080,8,WEEK 8,2007-02-14,2007-02-14,56,56,
ABC,SV,ABC-04-080,12,WEEK 12,2007-03-14,2007-03-14,84,84,
ABC,SV,ABC-04-080,16,WEEK 16,2007-04-12,2007-04-12,113,113,
ABC,SV,ABC-04-125,0,SCREENING,2006-12-14,2006-12-14,-15,-15,
ABC,SV,ABC-04-125,1,DAY 1,2006-12-29,2006-12-29,1,1,
ABC,SV,ABC-04-125,2,WEEK 2,2007-01-19,2007-01-19,22,22,
ABC,SV,ABC-04-125,4,WEEK 4,2007-01-25,2007-01-25,28,28,
ABC,SV,ABC-04-125,6,WEEK 6,2007-02-09,2007-02-09,43,43,
ABC,SV,ABC-04-125,8,WEEK 8,2007-02-23,2007-02-23,57,57,
ABC,SV,ABC-04-125,12,WEEK 12,2007-03-29,2007-03-29,91,91,
ABC,SV,ABC-04-125,16,WEEK 16,2007-04-13,2007-04-13,106,106,
ABC,SV,ABC-04-125,99,UNSCHEDULED 1,2007-04-13,2007-04-13,106,106,EVALUATION OF LABS
ABC,SV,ABC-04-126,0,SCREENING,2006-12-13,2006-12-13,-20,-20,
ABC,SV,ABC-04-126,1,DAY 1,2007-01-02,2007-01-02,1,1,
ABC,SV,ABC-04-126,2,WEEK 2,2007-01-17,2007-01-17,16,16,
ABC,SV,ABC-04-126,4,WEEK 4,2007-02-01,2007-02-01,31,31,
ABC,SV,ABC-04-126,6,WEEK 6,2007-02-12,2007-02-12,42,42,
ABC,SV,ABC-04-126,8,WEEK 8,2007-03-02,2007-03-02,60,60,
ABC,SV,ABC-04-126,12,WEEK 12,2007-03-28,2007-03-28,86,86,
ABC,SV,ABC-04-126,16,WEEK 16,2007-04-23,2007-04-23,112,112,
ABC,SV,ABC-04-126,99,UNSCHEDULED 1,2007-04-23,2007-04-23,112,112,EVALUATION OF LABS
ABC,SV,ABC-04-127,0,SCREENING,2006-12-14,2006-12-14,-20,-20,
ABC,SV,ABC-04-127,1,DAY 1,2007-01-03,2007-01-03,1,1,
ABC,SV,ABC-04-127,2,WEEK 2,2007-01-19,2007-01-19,17,17,
ABC,SV,ABC-04-127,4,WEEK 4,2007-02-01,2007-02-01,30,30,
ABC,SV,ABC-04-127,6,WEEK 6,2007-02-13,2007-02-13,42,42,
ABC,SV,ABC-04-127,8,WEEK 8,2007-03-08,2007-03-08,65,65,
ABC,SV,ABC-04-127,12,WEEK 12,2007-04-06,2007-04-06,94,94,
ABC,SV,ABC-04-127,16,WEEK 16,2007-05-11,2007-05-11,129,129,
ABC,SV,ABC-04-128,0,SCREENING,2006-12-21,2006-12-21,-14,-14,
ABC,SV,ABC-04-128,1,DAY 1,2007-01-04,2007-01-04,1,1,
ABC,SV,ABC-04-128,2,WEEK 2,2007-01-19,2007-01-19,16,16,
ABC,SV,ABC-04-129,0,SCREENING,2006-12-19,2006-12-19,-17,-17,
ABC,SV,ABC-04-129,1,DAY 1,2007-01-05,2007-01-05,1,1,
ABC,SV,ABC-04-129,2,WEEK 2,2007-01-19,2007-01-19,15,15,
ABC,SV,ABC-04-129,4,WEEK 4,2007-02-01,2007-02-01,28,28,
ABC,SV,ABC-04-129,6,WEEK 6,2007-02-15,2007-02-15,42,42,
ABC,SV,ABC-04-129,8,WEEK 8,2007-03-01,2007-03-01,56,56,
ABC,SV,ABC-04-129,12,WEEK 12,2007-03-29,2007-03-29,84,84,
ABC,SV,ABC-04-129,16,WEEK 16,2007-04-27,2007-04-27,113,113,
ABC,SV,ABC-04-130,0,SCREENING,2006-01-30,2006-12-18,-343,-21,
ABC,SV,ABC-04-130,1,DAY 1,2007-01-08,2007-01-08,1,1,
ABC,SV,ABC-04-130,2,WEEK 2,2007-01-23,2007-01-23,16,16,
ABC,SV,ABC-04-130,4,WEEK 4,2007-02-07,2007-02-07,31,31,
ABC,SV,ABC-04-130,6,WEEK 6,2007-02-20,2007-02-20,44,44,
ABC,SV,ABC-04-130,8,WEEK 8,2007-03-06,2007-03-06,58,58,
ABC,SV,ABC-04-130,12,WEEK 12,2007-04-03,2007-04-03,86,86,
ABC,SV,ABC-04-130,16,WEEK 16,2007-05-02,2007-05-02,115,115,
ABC,SV,ABC-04-130,99,UNSCHEDULED 1,2007-05-02,2007-05-02,115,115,EVALUATION OF LABS
ABC,SV,ABC-04-131,0,SCREENING,2006-12-18,2006-12-18,-23,-23,
ABC,SV,ABC-04-131,1,DAY 1,2007-01-10,2007-01-10,1,1,
ABC,SV,ABC-04-131,2,WEEK 2,2007-01-26,2007-01-26,17,17,
ABC,SV,ABC-04-131,4,WEEK 4,2007-02-07,2007-02-07,29,29,
ABC,SV,ABC-04-131,6,WEEK 6,2007-02-21,2007-02-21,43,43,
ABC,SV,ABC-04-131,8,WEEK 8,2007-03-07,2007-03-07,57,57,
ABC,SV,ABC-04-131,12,WEEK 12,2007-04-05,2007-04-05,86,86,
ABC,SV,ABC-04-131,16,WEEK 16,2007-05-02,2007-05-02,113,113,
ABC,SV,ABC-04-131,99,UNSCHEDULED 1,2006-12-18,2006-12-18,-23,-23,EVALUATION OF LABS
ABC,SV,ABC-04-131,100,UNSCHEDULED 2,2007-01-05,2007-01-05,-5,-5,EVALUATION OF LABS
ABC,SV,ABC-06-065,0,SCREENING,2006-10-27,2006-10-27,-12,-12,
ABC,SV,ABC-06-065,1,DAY 1,2006-11-08,2006-11-08,1,1,
ABC,SV,ABC-06-065,2,WEEK 2,2006-11-22,2006-11-22,15,15,
ABC,SV,ABC-06-065,4,WEEK 4,2006-12-06,2006-12-06,29,29,
ABC,SV,ABC-06-065,6,WEEK 6,2006-12-20,2006-12-20,43,43,
ABC,SV,ABC-06-065,8,WEEK 8,2007-01-03,2007-01-03,57,57,
ABC,SV,ABC-06-065,12,WEEK 12,2007-01-31,2007-01-31,85,85,
ABC,SV,ABC-06-065,16,WEEK 16,2007-02-28,2007-02-28,113,113,
ABC,SV,ABC-06-066,0,SCREENING,2006-11-05,2006-11-06,-9,-8,
ABC,SV,ABC-06-066,1,DAY 1,2006-11-14,2006-11-14,1,1,
ABC,SV,ABC-06-066,2,WEEK 2,2006-11-28,2006-11-28,15,15,
ABC,SV,ABC-06-066,4,WEEK 4,2006-12-12,2006-12-12,29,29,
ABC,SV,ABC-06-066,6,WEEK 6,2006-12-28,2006-12-28,45,45,
ABC,SV,ABC-06-066,8,WEEK 8,2007-01-11,2007-01-11,59,59,
ABC,SV,ABC-06-066,12,WEEK 12,2007-02-08,2007-02-08,87,87,
ABC,SV,ABC-06-066,16,WEEK 16,2007-03-08,2007-03-08,115,115,
ABC,SV,ABC-06-066,99,UNSCHEDULED 1,2006-12-28,2006-12-28,45,45,EVALUATION OF LABS
ABC,SV,ABC-06-067,0,SCREENING,2006-11-14,2006-11-14,-7,-7,
ABC,SV,ABC-06-067,1,DAY 1,2006-11-21,2006-11-21,1,1,
ABC,SV,ABC-06-067,2,WEEK 2,2006-12-04,2006-12-04,14,14,
ABC,SV,ABC-06-067,4,WEEK 4,2006-12-18,2006-12-18,28,28,
ABC,SV,ABC-06-067,6,WEEK 6,2007-01-02,2007-01-02,43,43,
ABC,SV,ABC-06-067,8,WEEK 8,2007-01-18,2007-01-18,59,59,
ABC,SV,ABC-06-067,12,WEEK 12,2007-02-13,2007-02-13,85,85,
ABC,SV,ABC-06-067,16,WEEK 16,2007-03-15,2007-03-15,115,115,
ABC,SV,ABC-06-067,99,UNSCHEDULED 1,2006-12-18,2006-12-18,28,28,EVALUATION OF LABS
ABC,SV,ABC-06-068,0,SCREENING,2006-11-16,2006-11-16,-6,-6,
ABC,SV,ABC-06-068,1,DAY 1,2006-11-22,2006-11-22,1,1,
ABC,SV,ABC-06-068,2,WEEK 2,2006-12-08,2006-12-08,17,17,
ABC,SV,ABC-06-068,4,WEEK 4,2006-12-21,2006-12-21,30,30,
ABC,SV,ABC-06-068,6,WEEK 6,2007-01-05,2007-01-05,45,45,
ABC,SV,ABC-06-068,8,WEEK 8,2007-01-19,2007-01-19,59,59,
ABC,SV,ABC-06-068,12,WEEK 12,2007-02-15,2007-02-15,86,86,
ABC,SV,ABC-06-068,16,WEEK 16,2007-03-15,2007-03-15,114,114,
ABC,SV,ABC-06-069,0,SCREENING,2006-11-05,2006-11-06,-22,-21,
ABC,SV,ABC-06-069,1,DAY 1,2006-11-27,2006-11-27,1,1,
ABC,SV,ABC-06-069,2,WEEK 2,2006-12-08,2006-12-08,12,12,
ABC,SV,ABC-06-069,4,WEEK 4,2006-12-22,2006-12-22,26,26,
ABC,SV,ABC-06-069,20,END OF STUDY EARLY TERMINATION,2007-01-05,2007-01-05,40,40,
ABC,SV,ABC-06-070,0,SCREENING,2006-11-17,2006-11-17,-12,-12,
ABC,SV,ABC-06-070,1,DAY 1,2006-11-29,2006-11-29,1,1,
ABC,SV,ABC-06-070,2,WEEK 2,2006-12-13,2006-12-13,15,15,
ABC,SV,ABC-06-070,4,WEEK 4,2006-12-27,2006-12-27,29,29,
ABC,SV,ABC-06-070,6,WEEK 6,2007-01-10,2007-01-10,43,43,
ABC,SV,ABC-06-070,8,WEEK 8,2007-01-24,2007-01-24,57,57,
ABC,SV,ABC-06-070,12,WEEK 12,2007-02-21,2007-02-21,85,85,
ABC,SV,ABC-06-070,16,WEEK 16,2007-03-21,2007-03-21,113,113,
ABC,SV,ABC-06-071,0,SCREENING,2006-11-15,2006-11-15,-14,-14,
ABC,SV,ABC-06-071,1,DAY 1,2006-11-29,2006-11-29,1,1,
ABC,SV,ABC-06-071,2,WEEK 2,2006-12-13,2006-12-13,15,15,
ABC,SV,ABC-06-071,4,WEEK 4,2006-12-28,2006-12-28,30,30,
ABC,SV,ABC-06-071,6,WEEK 6,2007-01-11,2007-01-11,44,44,
ABC,SV,ABC-06-071,8,WEEK 8,2007-01-25,2007-01-25,58,58,
ABC,SV,ABC-06-071,12,WEEK 12,2007-02-22,2007-02-22,86,86,
ABC,SV,ABC-06-071,16,WEEK 16,2007-03-21,2007-03-21,113,113,
ABC,SV,ABC-06-071,99,UNSCHEDULED 1,2006-11-22,2006-11-22,-7,-7,EVALUATION OF LABS
ABC,SV,ABC-06-072,0,SCREENING,2006-11-28,2006-11-28,-7,-7,
ABC,SV,ABC-06-072,1,DAY 1,2006-12-05,2006-12-05,1,1,
ABC,SV,ABC-06-072,2,WEEK 2,2006-12-21,2006-12-21,17,17,
ABC,SV,ABC-06-072,4,WEEK 4,2007-01-04,2007-01-04,31,31,
ABC,SV,ABC-06-072,6,WEEK 6,2007-01-18,2007-01-18,45,45,
ABC,SV,ABC-06-072,8,WEEK 8,2007-01-31,2007-01-31,58,58,
ABC,SV,ABC-06-072,12,WEEK 12,2007-02-28,2007-02-28,86,86,
ABC,SV,ABC-06-072,16,WEEK 16,2007-03-27,2007-03-27,113,113,
ABC,SV,ABC-06-161,0,SCREENING,2006-12-08,2006-12-08,-4,-4,
ABC,SV,ABC-06-161,1,DAY 1,2006-12-12,2006-12-12,1,1,
ABC,SV,ABC-06-161,20,END OF STUDY EARLY TERMINATION,2007-01-04,2007-01-04,24,24,
ABC,SV,ABC-06-161,99,UNSCHEDULED 1,2006-12-12,2006-12-12,1,1,EVALUATION OF LABS
ABC,SV,ABC-06-162,0,SCREENING,2006-12-14,2006-12-14,-14,-14,
ABC,SV,ABC-06-162,1,DAY 1,2006-12-28,2006-12-28,1,1,
ABC,SV,ABC-06-162,2,WEEK 2,2007-01-11,2007-01-11,15,15,
ABC,SV,ABC-06-162,4,WEEK 4,2007-01-25,2007-01-25,29,29,
ABC,SV,ABC-06-162,6,WEEK 6,2007-02-21,2007-02-21,56,56,
ABC,SV,ABC-06-162,8,WEEK 8,2007-02-21,2007-02-21,56,56,
ABC,SV,ABC-06-162,12,WEEK 12,2007-03-21,2007-03-21,84,84,
ABC,SV,ABC-06-162,16,WEEK 16,2007-04-24,2007-04-24,118,118,
ABC,SV,ABC-06-162,99,UNSCHEDULED 1,2007-01-17,2007-01-17,21,21,EVALUATION OF LABS
ABC,SV,ABC-06-163,0,SCREENING,2006-12-21,2006-12-21,-18,-18,
ABC,SV,ABC-06-163,1,DAY 1,2007-01-08,2007-01-08,1,1,
ABC,SV,ABC-06-163,2,WEEK 2,2007-01-22,2007-01-22,15,15,
ABC,SV,ABC-06-163,4,WEEK 4,2007-02-05,2007-02-05,29,29,
ABC,SV,ABC-06-163,6,WEEK 6,2007-02-20,2007-02-20,44,44,
ABC,SV,ABC-06-163,8,WEEK 8,2007-03-05,2007-03-05,57,57,
ABC,SV,ABC-06-163,12,WEEK 12,2007-04-02,2007-04-02,85,85,
ABC,SV,ABC-06-163,16,WEEK 16,2007-04-30,2007-04-30,113,113,
ABC,SV,ABC-06-163,99,UNSCHEDULED 1,2007-01-03,2007-01-03,-5,-5,EVALUATION OF LABS
ABC,SV,ABC-06-163,100,UNSCHEDULED 2,2007-04-02,2007-04-02,85,85,EVALUATION OF LABS
ABC,SV,ABC-07-009,0,SCREENING,2006-10-11,2006-10-11,-7,-7,
ABC,SV,ABC-07-009,1,DAY 1,2006-10-18,2006-10-18,1,1,
ABC,SV,ABC-07-009,2,WEEK 2,2006-11-01,2006-11-01,15,15,
ABC,SV,ABC-07-009,4,WEEK 4,2006-11-15,2006-11-15,29,29,
ABC,SV,ABC-07-009,6,WEEK 6,2006-11-29,2006-11-29,43,43,
ABC,SV,ABC-07-009,8,WEEK 8,2006-12-13,2006-12-13,57,57,
ABC,SV,ABC-07-009,12,WEEK 12,2007-01-10,2007-01-10,85,85,
ABC,SV,ABC-07-009,16,WEEK 16,2007-02-07,2007-02-07,113,113,
ABC,SV,ABC-07-009,99,UNSCHEDULED 1,2006-10-19,2006-10-19,2,2,EVALUATION OF LABS
ABC,SV,ABC-07-010,0,SCREENING,2006-11-15,2006-11-15,-7,-7,
ABC,SV,ABC-07-010,1,DAY 1,2006-11-22,2006-11-22,1,1,
ABC,SV,ABC-07-010,2,WEEK 2,2006-12-06,2006-12-06,15,15,
ABC,SV,ABC-07-010,4,WEEK 4,2006-12-20,2006-12-20,29,29,
ABC,SV,ABC-07-010,6,WEEK 6,2007-01-10,2007-01-10,50,50,
ABC,SV,ABC-07-010,8,WEEK 8,2007-01-24,2007-01-24,64,64,
ABC,SV,ABC-07-010,12,WEEK 12,2007-02-07,2007-02-07,78,78,
ABC,SV,ABC-07-010,16,WEEK 16,2007-03-07,2007-03-07,106,106,
ABC,SV,ABC-07-011,0,SCREENING,2006-11-15,2006-11-15,-7,-7,
ABC,SV,ABC-07-011,1,DAY 1,2006-11-22,2006-11-22,1,1,
ABC,SV,ABC-07-011,2,WEEK 2,2006-12-06,2006-12-06,15,15,
ABC,SV,ABC-07-011,4,WEEK 4,2006-12-20,2006-12-20,29,29,
ABC,SV,ABC-07-011,6,WEEK 6,2007-01-10,2007-01-10,50,50,
ABC,SV,ABC-07-011,8,WEEK 8,2007-01-24,2007-01-24,64,64,
ABC,SV,ABC-07-011,12,WEEK 12,2007-02-07,2007-02-07,78,78,
ABC,SV,ABC-07-011,16,WEEK 16,2007-03-07,2007-03-07,106,106,
ABC,SV,ABC-07-011,99,UNSCHEDULED 1,2007-01-10,2007-01-10,50,50,EVALUATION OF LABS
ABC,SV,ABC-07-012,0,SCREENING,2006-12-06,2006-12-06,-7,-7,
ABC,SV,ABC-07-012,1,DAY 1,2006-12-13,2006-12-13,1,1,
ABC,SV,ABC-07-012,2,WEEK 2,2006-12-27,2006-12-27,15,15,
ABC,SV,ABC-07-012,4,WEEK 4,2007-01-10,2007-01-10,29,29,
ABC,SV,ABC-07-012,6,WEEK 6,2007-01-24,2007-01-24,43,43,
ABC,SV,ABC-07-012,8,WEEK 8,2007-02-07,2007-02-07,57,57,
ABC,SV,ABC-07-012,12,WEEK 12,2007-03-07,2007-03-07,85,85,
ABC,SV,ABC-07-012,16,WEEK 16,2007-04-04,2007-04-04,113,113,
ABC,SV,ABC-07-013,0,SCREENING,2006-12-11,2006-12-11,-7,-7,
ABC,SV,ABC-07-013,1,DAY 1,2006-12-18,2006-12-18,1,1,
ABC,SV,ABC-07-013,2,WEEK 2,2007-01-02,2007-01-02,16,16,
ABC,SV,ABC-07-013,4,WEEK 4,2007-01-15,2007-01-15,29,29,
ABC,SV,ABC-07-013,6,WEEK 6,2007-01-29,2007-01-29,43,43,
ABC,SV,ABC-07-013,8,WEEK 8,2007-02-12,2007-02-12,57,57,
ABC,SV,ABC-07-013,12,WEEK 12,2007-03-13,2007-03-13,86,86,
ABC,SV,ABC-07-013,16,WEEK 16,2007-04-10,2007-04-10,114,114,
ABC,SV,ABC-07-013,99,UNSCHEDULED 1,2007-01-02,2007-01-02,16,16,EVALUATION OF LABS
ABC,SV,ABC-07-014,0,SCREENING,2006-12-11,2006-12-11,-7,-7,
ABC,SV,ABC-07-014,1,DAY 1,2006-12-18,2006-12-18,1,1,
ABC,SV,ABC-07-014,2,WEEK 2,2007-01-02,2007-01-02,16,16,
ABC,SV,ABC-07-014,4,WEEK 4,2007-01-15,2007-01-15,29,29,
ABC,SV,ABC-07-014,6,WEEK 6,2007-01-29,2007-01-29,43,43,
ABC,SV,ABC-07-014,8,WEEK 8,2007-02-12,2007-02-12,57,57,
ABC,SV,ABC-07-014,12,WEEK 12,2007-03-13,2007-03-13,86,86,
ABC,SV,ABC-07-014,16,WEEK 16,2007-04-11,2007-04-11,115,115,
ABC,SV,ABC-07-014,99,UNSCHEDULED 1,2007-01-02,2007-01-02,16,16,EVALUATION OF LABS
ABC,SV,ABC-07-015,0,SCREENING,2006-12-13,2006-12-18,-7,-2,
ABC,SV,ABC-07-015,1,DAY 1,2006-12-20,2006-12-20,1,1,
ABC,SV,ABC-07-015,2,WEEK 2,2007-01-10,2007-01-10,22,22,
ABC,SV,ABC-07-015,4,WEEK 4,2007-01-17,2007-01-17,29,29,
ABC,SV,ABC-07-015,6,WEEK 6,2007-01-31,2007-01-31,43,43,
ABC,SV,ABC-07-015,8,WEEK 8,2007-02-14,2007-02-14,57,57,
ABC,SV,ABC-07-015,12,WEEK 12,2007-03-21,2007-03-21,92,92,
ABC,SV,ABC-07-015,16,WEEK 16,2007-04-11,2007-04-11,113,113,
ABC,SV,ABC-07-015,99,UNSCHEDULED 1,2006-12-18,2006-12-18,-2,-2,EVALUATION OF LABS
ABC,SV,ABC-07-016,0,SCREENING,2006-12-18,2006-12-18,-8,-8,
ABC,SV,ABC-07-016,1,DAY 1,2006-12-26,2006-12-26,1,1,
ABC,SV,ABC-07-016,2,WEEK 2,2007-01-08,2007-01-08,14,14,
ABC,SV,ABC-07-016,4,WEEK 4,2007-01-23,2007-01-23,29,29,
ABC,SV,ABC-07-016,6,WEEK 6,2007-02-05,2007-02-05,42,42,
ABC,SV,ABC-07-016,8,WEEK 8,2007-02-21,2007-02-21,58,58,
ABC,SV,ABC-07-016,12,WEEK 12,2007-03-19,2007-03-19,84,84,
ABC,SV,ABC-07-016,16,WEEK 16,2007-04-18,2007-04-18,114,114,
ABC,SV,ABC-08-101,0,SCREENING,2006-10-23,2006-10-23,-15,-15,
ABC,SV,ABC-08-101,1,DAY 1,2006-11-07,2006-11-20,1,14,
ABC,SV,ABC-08-101,2,WEEK 2,2006-11-20,2006-11-20,14,14,
ABC,SV,ABC-08-101,4,WEEK 4,2006-12-04,2006-12-04,28,28,
ABC,SV,ABC-08-101,6,WEEK 6,2006-12-18,2006-12-18,42,42,
ABC,SV,ABC-08-101,8,WEEK 8,2007-01-03,2007-01-03,58,58,
ABC,SV,ABC-08-101,12,WEEK 12,2007-01-31,2007-01-31,86,86,
ABC,SV,ABC-08-101,16,WEEK 16,2007-02-27,2007-02-27,113,113,
ABC,SV,ABC-08-101,99,UNSCHEDULED 1,2006-11-02,2006-11-02,-5,-5,EVALUATION OF LABS
ABC,SV,ABC-08-102,0,SCREENING,2006-11-01,2006-11-01,-8,-8,
ABC,SV,ABC-08-102,1,DAY 1,2006-11-09,2006-11-09,1,1,
ABC,SV,ABC-08-102,2,WEEK 2,2006-11-21,2006-11-21,13,13,
ABC,SV,ABC-08-102,4,WEEK 4,2006-12-07,2006-12-07,29,29,
ABC,SV,ABC-08-102,6,WEEK 6,2006-12-20,2006-12-20,42,42,
ABC,SV,ABC-08-102,8,WEEK 8,2007-01-02,2007-01-02,55,55,
ABC,SV,ABC-08-102,12,WEEK 12,2007-01-31,2007-01-31,84,84,
ABC,SV,ABC-08-102,16,WEEK 16,2007-03-01,2007-03-01,113,113,
ABC,SV,ABC-08-103,0,SCREENING,2006-11-02,2006-11-02,-7,-7,
ABC,SV,ABC-08-103,1,DAY 1,2006-11-09,2006-11-09,1,1,
ABC,SV,ABC-08-103,2,WEEK 2,2006-11-21,2006-11-21,13,13,
ABC,SV,ABC-08-103,4,WEEK 4,2006-12-08,2006-12-08,30,30,
ABC,SV,ABC-08-103,8,WEEK 8,2007-01-12,2007-01-12,65,65,
ABC,SV,ABC-08-103,12,WEEK 12,2007-01-31,2007-01-31,84,84,
ABC,SV,ABC-08-103,20,END OF STUDY EARLY TERMINATION,2007-03-19,2007-03-19,131,131,
ABC,SV,ABC-08-104,0,SCREENING,2006-11-01,2006-11-09,-8,1,
ABC,SV,ABC-08-104,1,DAY 1,2006-11-09,2006-11-09,1,1,
ABC,SV,ABC-08-104,2,WEEK 2,2006-11-21,2006-11-21,13,13,
ABC,SV,ABC-08-104,4,WEEK 4,2006-12-08,2006-12-08,30,30,
ABC,SV,ABC-08-104,6,WEEK 6,2006-12-20,2006-12-20,42,42,
ABC,SV,ABC-08-104,8,WEEK 8,2007-01-03,2007-01-03,56,56,
ABC,SV,ABC-08-104,12,WEEK 12,2007-02-09,2007-02-09,93,93,
ABC,SV,ABC-08-104,16,WEEK 16,2007-02-26,2007-02-26,110,110,
ABC,SV,ABC-08-104,99,UNSCHEDULED 1,2006-11-09,2006-11-09,1,1,EVALUATION OF LABS
ABC,SV,ABC-08-104,100,UNSCHEDULED 2,2006-11-21,2006-11-21,13,13,EVALUATION OF LABS
ABC,SV,ABC-08-105,0,SCREENING,2006-10-30,2006-10-30,-14,-14,
ABC,SV,ABC-08-105,1,DAY 1,2006-11-13,2006-11-13,1,1,
ABC,SV,ABC-08-105,2,WEEK 2,2006-11-28,2006-11-28,16,16,
ABC,SV,ABC-08-105,4,WEEK 4,2006-12-11,2006-12-11,29,29,
ABC,SV,ABC-08-105,6,WEEK 6,2006-12-27,2006-12-27,45,45,
ABC,SV,ABC-08-105,8,WEEK 8,2007-01-08,2007-01-08,57,57,
ABC,SV,ABC-08-105,20,END OF STUDY EARLY TERMINATION,2007-03-26,2007-03-26,134,134,
ABC,SV,ABC-08-105,99,UNSCHEDULED 1,2006-11-03,2006-11-03,-10,-10,EVALUATION OF LABS
ABC,SV,ABC-08-106,0,SCREENING,2006-10-30,2006-10-30,-15,-15,
ABC,SV,ABC-08-106,1,DAY 1,2006-11-14,2006-11-14,1,1,
ABC,SV,ABC-08-106,2,WEEK 2,2006-11-29,2006-11-29,16,16,
ABC,SV,ABC-08-106,4,WEEK 4,2006-12-11,2006-12-11,28,28,
ABC,SV,ABC-08-106,6,WEEK 6,2006-12-27,2006-12-27,44,44,
ABC,SV,ABC-08-106,8,WEEK 8,2007-01-08,2007-01-08,56,56,
ABC,SV,ABC-08-106,12,WEEK 12,2007-02-05,2007-02-05,84,84,
ABC,SV,ABC-08-106,16,WEEK 16,2007-03-12,2007-03-12,119,119,
ABC,SV,ABC-08-106,99,UNSCHEDULED 1,2006-12-27,2006-12-27,44,44,EVALUATION OF LABS
ABC,SV,ABC-08-107,0,SCREENING,2006-11-03,2006-11-03,-18,-18,
ABC,SV,ABC-08-107,1,DAY 1,2006-11-21,2006-11-21,1,1,
ABC,SV,ABC-08-107,2,WEEK 2,2006-12-04,2006-12-04,14,14,
ABC,SV,ABC-08-107,4,WEEK 4,2006-12-18,2006-12-18,28,28,
ABC,SV,ABC-08-107,20,END OF STUDY EARLY TERMINATION,2007-01-03,2007-01-03,44,44,
ABC,SV,ABC-08-108,0,SCREENING,2006-12-04,2006-12-04,-18,-18,
ABC,SV,ABC-08-108,1,DAY 1,2006-12-22,2006-12-22,1,1,
ABC,SV,ABC-08-108,2,WEEK 2,2007-01-03,2007-01-03,13,13,
ABC,SV,ABC-08-108,4,WEEK 4,2007-01-18,2007-01-18,28,28,
ABC,SV,ABC-08-108,6,WEEK 6,2007-01-31,2007-01-31,41,41,
ABC,SV,ABC-08-108,20,END OF STUDY EARLY TERMINATION,2007-03-05,2007-03-05,74,74,
ABC,SV,ABC-09-017,0,SCREENING,2006-10-06,2006-10-08,-12,-10,
ABC,SV,ABC-09-017,1,DAY 1,2006-10-18,2006-10-18,1,1,
ABC,SV,ABC-09-017,2,WEEK 2,2006-11-01,2006-11-01,15,15,
ABC,SV,ABC-09-017,4,WEEK 4,2006-11-15,2006-11-15,29,29,
ABC,SV,ABC-09-017,6,WEEK 6,2006-11-29,2006-11-29,43,43,
ABC,SV,ABC-09-017,8,WEEK 8,2006-12-13,2006-12-13,57,57,
ABC,SV,ABC-09-017,12,WEEK 12,2007-01-11,2007-01-11,86,86,
ABC,SV,ABC-09-017,16,WEEK 16,2007-02-09,2007-02-09,115,115,
ABC,SV,ABC-09-018,0,SCREENING,2006-10-04,2006-10-04,-14,-14,
ABC,SV,ABC-09-018,1,DAY 1,2006-10-18,2006-10-18,1,1,
ABC,SV,ABC-09-018,2,WEEK 2,2006-11-01,2006-11-01,15,15,
ABC,SV,ABC-09-018,4,WEEK 4,2006-11-15,2006-11-15,29,29,
ABC,SV,ABC-09-018,6,WEEK 6,2006-11-29,2006-11-29,43,43,
ABC,SV,ABC-09-018,8,WEEK 8,2006-12-13,2006-12-13,57,57,
ABC,SV,ABC-09-018,12,WEEK 12,2007-01-10,2007-01-10,85,85,
ABC,SV,ABC-09-018,16,WEEK 16,2007-02-09,2007-02-09,115,115,
ABC,SV,ABC-09-019,0,SCREENING,2006-10-06,2006-10-06,-12,-12,
ABC,SV,ABC-09-019,1,DAY 1,2006-10-18,2006-10-18,1,1,
ABC,SV,ABC-09-019,2,WEEK 2,2006-11-01,2006-11-01,15,15,
ABC,SV,ABC-09-019,4,WEEK 4,2006-11-15,2006-11-15,29,29,
ABC,SV,ABC-09-019,6,WEEK 6,2006-11-29,2006-11-29,43,43,
ABC,SV,ABC-09-019,8,WEEK 8,2006-12-13,2006-12-13,57,57,
ABC,SV,ABC-09-019,12,WEEK 12,2007-01-10,2007-01-10,85,85,
ABC,SV,ABC-09-019,16,WEEK 16,2007-02-07,2007-02-07,113,113,
ABC,SV,ABC-09-019,99,UNSCHEDULED 1,2006-11-29,2006-11-29,43,43,EVALUATION OF LABS
ABC,SV,ABC-09-020,0,SCREENING,2006-10-04,2006-10-04,-14,-14,
ABC,SV,ABC-09-020,1,DAY 1,2006-10-18,2006-10-18,1,1,
ABC,SV,ABC-09-020,2,WEEK 2,2006-11-01,2006-11-01,15,15,
ABC,SV,ABC-09-020,4,WEEK 4,2006-11-15,2006-11-15,29,29,
ABC,SV,ABC-09-020,6,WEEK 6,2006-11-29,2006-11-29,43,43,
ABC,SV,ABC-09-020,8,WEEK 8,2006-12-14,2006-12-14,58,58,
ABC,SV,ABC-09-020,12,WEEK 12,2007-01-10,2007-01-10,85,85,
ABC,SV,ABC-09-020,16,WEEK 16,2007-02-07,2007-02-07,113,113,
ABC,SV,ABC-09-021,0,SCREENING,2006-10-05,2006-10-05,-27,-27,
ABC,SV,ABC-09-021,1,DAY 1,2006-11-01,2006-11-01,1,1,
ABC,SV,ABC-09-022,0,SCREENING,2006-11-13,2006-11-13,-3,-3,
ABC,SV,ABC-09-022,1,DAY 1,2006-11-16,2006-11-16,1,1,
ABC,SV,ABC-09-022,2,WEEK 2,2006-11-30,2006-11-30,15,15,
ABC,SV,ABC-09-023,0,SCREENING,2006-11-14,2006-11-14,-2,-2,
ABC,SV,ABC-09-023,1,DAY 1,2006-11-16,2006-11-16,1,1,
ABC,SV,ABC-09-023,2,WEEK 2,2006-11-30,2006-11-30,15,15,
ABC,SV,ABC-09-023,4,WEEK 4,2006-12-14,2006-12-14,29,29,
ABC,SV,ABC-09-023,6,WEEK 6,2006-12-26,2006-12-26,41,41,
ABC,SV,ABC-09-023,8,WEEK 8,2007-01-11,2007-01-11,57,57,
ABC,SV,ABC-09-023,12,WEEK 12,2007-02-09,2007-02-09,86,86,
ABC,SV,ABC-09-023,16,WEEK 16,2007-03-12,2007-03-12,117,117,
ABC,SV,ABC-09-024,0,SCREENING,2006-11-09,2006-11-09,-7,-7,
ABC,SV,ABC-09-024,1,DAY 1,2006-11-16,2006-11-16,1,1,
ABC,SV,ABC-09-024,2,WEEK 2,2006-11-30,2006-11-30,15,15,
ABC,SV,ABC-09-024,4,WEEK 4,2006-12-14,2006-12-14,29,29,
ABC,SV,ABC-09-024,6,WEEK 6,2006-12-26,2006-12-26,41,41,
ABC,SV,ABC-09-024,8,WEEK 8,2007-01-11,2007-01-11,57,57,
ABC,SV,ABC-09-024,12,WEEK 12,2007-02-09,2007-02-09,86,86,
ABC,SV,ABC-09-024,16,WEEK 16,2007-03-09,2007-03-09,114,114,
ABC,SV,ABC-09-137,0,SCREENING,2006-11-17,2006-11-17,-4,-4,
ABC,SV,ABC-09-137,1,DAY 1,2006-11-21,2006-11-21,1,1,
ABC,SV,ABC-09-137,2,WEEK 2,2006-12-06,2006-12-06,16,16,
ABC,SV,ABC-09-137,4,WEEK 4,2006-12-20,2006-12-20,30,30,
ABC,SV,ABC-09-137,6,WEEK 6,2007-01-03,2007-01-03,44,44,
ABC,SV,ABC-09-137,8,WEEK 8,2007-01-18,2007-01-18,59,59,
ABC,SV,ABC-09-137,12,WEEK 12,2007-02-15,2007-02-15,87,87,
ABC,SV,ABC-09-137,16,WEEK 16,2007-03-19,2007-03-19,119,119,
ABC,SV,ABC-09-138,0,SCREENING,2006-11-15,2006-11-15,-6,-6,
ABC,SV,ABC-09-138,1,DAY 1,2006-11-21,2006-11-21,1,1,
ABC,SV,ABC-09-138,2,WEEK 2,2006-12-06,2006-12-06,16,16,
ABC,SV,ABC-09-138,4,WEEK 4,2006-12-20,2006-12-20,30,30,
ABC,SV,ABC-09-138,6,WEEK 6,2007-01-03,2007-01-06,44,47,
ABC,SV,ABC-09-138,8,WEEK 8,2007-01-18,2007-01-18,59,59,
ABC,SV,ABC-09-138,12,WEEK 12,2007-02-15,2007-02-15,87,87,
ABC,SV,ABC-09-138,16,WEEK 16,2007-03-15,2007-03-15,115,115,
ABC,SV,ABC-09-139,0,SCREENING,2006-11-17,2006-11-17,-4,-4,
ABC,SV,ABC-09-139,1,DAY 1,2006-11-21,2006-11-21,1,1,
ABC,SV,ABC-09-139,2,WEEK 2,2006-12-06,2006-12-06,16,16,
ABC,SV,ABC-09-139,4,WEEK 4,2006-12-20,2006-12-20,30,30,
ABC,SV,ABC-09-139,6,WEEK 6,2007-01-04,2007-01-04,45,45,
ABC,SV,ABC-09-139,8,WEEK 8,2007-01-18,2007-01-18,59,59,
ABC,SV,ABC-09-139,12,WEEK 12,2007-02-16,2007-02-16,88,88,
ABC,SV,ABC-09-139,16,WEEK 16,2007-03-20,2007-03-20,120,120,
ABC,SV,ABC-09-139,99,UNSCHEDULED 1,2006-11-21,2006-11-21,1,1,EVALUATION OF LABS
ABC,SV,ABC-09-140,0,SCREENING,2006-11-22,2006-11-22,-6,-6,
ABC,SV,ABC-09-140,1,DAY 1,2006-11-28,2006-11-28,1,1,
ABC,SV,ABC-09-140,2,WEEK 2,2006-12-12,2006-12-12,15,15,
ABC,SV,ABC-09-140,4,WEEK 4,2006-12-22,2006-12-22,25,25,
ABC,SV,ABC-09-140,6,WEEK 6,2007-01-10,2007-01-10,44,44,
ABC,SV,ABC-09-140,8,WEEK 8,2006-01-23,2006-01-23,-309,-309,
ABC,SV,ABC-09-140,12,WEEK 12,2007-02-20,2007-02-20,85,85,
ABC,SV,ABC-09-140,16,WEEK 16,2007-03-20,2007-03-20,113,113,
ABC,SV,ABC-09-140,99,UNSCHEDULED 1,2006-11-28,2006-11-28,1,1,EVALUATION OF LABS
