STUDYID,DOMAIN,USUBJID,VSSEQ,VSTESTCD,VSTEST,VSPOS,VSORRES,VSORRESU,VSSTRESC,VSSTRESN,VSSTRESU,VSBLFL,VISITNUM,VISIT,VSDTC,VSDY
ABC,VS,ABC-01-049,1,DIABP,Diastolic Blood Pressure,SITTING,78,mmHg,78,78,mmHg,,0,SCREENING,2006-10-25,-13
ABC,VS,ABC-01-049,2,DIABP,Diastolic Blood Pressure,SITTING,76,mmHg,76,76,mmHg,Y,1,DAY 1,2006-11-07,1
ABC,VS,ABC-01-049,3,DIABP,Diastolic Blood Pressure,SITTING,66,mmHg,66,66,mmHg,,2,WEEK 2,2006-11-21,15
ABC,VS,ABC-01-049,4,DIABP,Diastolic Blood Pressure,SITTING,84,mmHg,84,84,mmHg,,4,WEEK 4,2006-12-07,31
ABC,VS,ABC-01-049,5,DIABP,Diastolic Blood Pressure,SITTING,68,mmHg,68,68,mmHg,,6,WEEK 6,2006-12-28,52
ABC,VS,ABC-01-049,6,DIABP,Diastolic Blood Pressure,SITTING,80,mmHg,80,80,mmHg,,8,WEEK 8,2007-01-11,66
ABC,VS,ABC-01-049,7,DIABP,Diastolic Blood Pressure,SITTING,70,mmHg,70,70,mmHg,,12,WEEK 12,2007-02-09,95
ABC,VS,ABC-01-049,8,DIABP,Diastolic Blood Pressure,SITTING,70,mmHg,70,70,mmHg,,16,WEEK 16,2007-03-13,127
ABC,VS,ABC-01-049,9,HEIGHT,Height,,178,cm,178,178,cm,Y,0,SCREENING,2006-10-25,-13
ABC,VS,ABC-01-049,10,PULSE,Pulse Rate,,92,BEATS/MIN,92,92,BEATS/MIN,,0,SCREENING,2006-10-25,-13
ABC,VS,ABC-01-049,11,PULSE,Pulse Rate,,84,BEATS/MIN,84,84,BEATS/MIN,Y,1,DAY 1,2006-11-07,1
ABC,VS,ABC-01-049,12,PULSE,Pulse Rate,,84,BEATS/MIN,84,84,BEATS/MIN,,2,WEEK 2,2006-11-21,15
ABC,VS,ABC-01-049,13,PULSE,Pulse Rate,,76,BEATS/MIN,76,76,BEATS/MIN,,4,WEEK 4,2006-12-07,31
ABC,VS,ABC-01-049,14,PULSE,Pulse Rate,,64,BEATS/MIN,64,64,BEATS/MIN,,6,WEEK 6,2006-12-28,52
ABC,VS,ABC-01-049,15,PULSE,Pulse Rate,,84,BEATS/MIN,84,84,BEATS/MIN,,8,WEEK 8,2007-01-11,66
ABC,VS,ABC-01-049,16,PULSE,Pulse Rate,,60,BEATS/MIN,60,60,BEATS/MIN,,12,WEEK 12,2007-02-09,95
ABC,VS,ABC-01-049,17,PULSE,Pulse Rate,,72,BEATS/MIN,72,72,BEATS/MIN,,16,WEEK 16,2007-03-13,127
ABC,VS,ABC-01-049,18,RESP,Respiratory Rate,,16,BREATHS/MIN,16,16,BREATHS/MIN,,0,SCREENING,2006-10-25,-13
ABC,VS,ABC-01-049,19,RESP,Respiratory Rate,,20,BREATHS/MIN,20,20,BREATHS/MIN,Y,1,DAY 1,2006-11-07,1
ABC,VS,ABC-01-049,20,RESP,Respiratory Rate,,16,BREATHS/MIN,16,16,BREATHS/MIN,,2,WEEK 2,2006-11-21,15
ABC,VS,ABC-01-049,21,RESP,Respiratory Rate,,16,BREATHS/MIN,16,16,BREATHS/MIN,,4,WEEK 4,2006-12-07,31
ABC,VS,ABC-01-049,22,RESP,Respiratory Rate,,20,BREATHS/MIN,20,20,BREATHS/MIN,,6,WEEK 6,2006-12-28,52
ABC,VS,ABC-01-049,23,RESP,Respiratory Rate,,16,BREATHS/MIN,16,16,BREATHS/MIN,,8,WEEK 8,2007-01-11,66
ABC,VS,ABC-01-049,24,RESP,Respiratory Rate,,20,BREATHS/MIN,20,20,BREATHS/MIN,,12,WEEK 12,2007-02-09,95
ABC,VS,ABC-01-049,25,RESP,Respiratory Rate,,18,BREATHS/MIN,18,18,BREATHS/MIN,,16,WEEK 16,2007-03-13,127
ABC,VS,ABC-01-049,26,SYSBP,Systolic Blood Pressure,SITTING,120,mmHg,120,120,mmHg,,0,SCREENING,2006-10-25,-13
ABC,VS,ABC-01-049,27,SYSBP,Systolic Blood Pressure,SITTING,120,mmHg,120,120,mmHg,Y,1,DAY 1,2006-11-07,1
ABC,VS,ABC-01-049,28,SYSBP,Systolic Blood Pressure,SITTING,128,mmHg,128,128,mmHg,,2,WEEK 2,2006-11-21,15
ABC,VS,ABC-01-049,29,SYSBP,Systolic Blood Pressure,SITTING,134,mmHg,134,134,mmHg,,4,WEEK 4,2006-12-07,31
ABC,VS,ABC-01-049,30,SYSBP,Systolic Blood Pressure,SITTING,100,mmHg,100,100,mmHg,,6,WEEK 6,2006-12-28,52
ABC,VS,ABC-01-049,31,SYSBP,Systolic Blood Pressure,SITTING,128,mmHg,128,128,mmHg,,8,WEEK 8,2007-01-11,66
ABC,VS,ABC-01-049,32,SYSBP,Systolic Blood Pressure,SITTING,120,mmHg,120,120,mmHg,,12,WEEK 12,2007-02-09,95
ABC,VS,ABC-01-049,33,SYSBP,Systolic Blood Pressure,SITTING,130,mmHg,130,130,mmHg,,16,WEEK 16,2007-03-13,127
ABC,VS,ABC-01-049,34,TEMP,Temperature,,36.4,C,36.4,36.4,C,Y,1,DAY 1,2006-11-07,1
ABC,VS,ABC-01-049,35,TEMP,Temperature,,36.6,C,36.6,36.6,C,,2,WEEK 2,2006-11-21,15
ABC,VS,ABC-01-049,36,TEMP,Temperature,,35.7,C,35.7,35.7,C,,4,WEEK 4,2006-12-07,31
ABC,VS,ABC-01-049,37,TEMP,Temperature,,36.5,C,36.5,36.5,C,,6,WEEK 6,2006-12-28,52
ABC,VS,ABC-01-049,38,TEMP,Temperature,,36.4,C,36.4,36.4,C,,8,WEEK 8,2007-01-11,66
ABC,VS,ABC-01-049,39,TEMP,Temperature,,36.6,C,36.6,36.6,C,,12,WEEK 12,2007-02-09,95
ABC,VS,ABC-01-049,40,TEMP,Temperature,,36.2,C,36.2,36.2,C,,16,WEEK 16,2007-03-13,127
ABC,VS,ABC-01-049,41,WEIGHT,Weight,,108.6,kg,108.6,108.6,kg,Y,0,SCREENING,2006-10-25,-13
ABC,VS,ABC-01-050,1,DIABP,Diastolic Blood Pressure,SITTING,80,mmHg,80,80,mmHg,,0,SCREENING,2006-10-25,-8
ABC,VS,ABC-01-050,2,DIABP,Diastolic Blood Pressure,SITTING,78,mmHg,78,78,mmHg,Y,1,DAY 1,2006-11-02,1
ABC,VS,ABC-01-050,3,DIABP,Diastolic Blood Pressure,SITTING,64,mmHg,64,64,mmHg,,2,WEEK 2,2006-11-16,15
ABC,VS,ABC-01-050,4,DIABP,Diastolic Blood Pressure,SITTING,86,mmHg,86,86,mmHg,,4,WEEK 4,2006-11-30,29
ABC,VS,ABC-01-050,5,DIABP,Diastolic Blood Pressure,SITTING,70,mmHg,70,70,mmHg,,6,WEEK 6,2006-12-14,43
ABC,VS,ABC-01-050,6,DIABP,Diastolic Blood Pressure,SITTING,80,mmHg,80,80,mmHg,,8,WEEK 8,2006-12-28,57
ABC,VS,ABC-01-050,7,DIABP,Diastolic Blood Pressure,SITTING,64,mmHg,64,64,mmHg,,12,WEEK 12,2007-01-30,90
ABC,VS,ABC-01-050,8,DIABP,Diastolic Blood Pressure,SITTING,82,mmHg,82,82,mmHg,,16,WEEK 16,2007-03-08,127
ABC,VS,ABC-01-050,9,HEIGHT,Height,,185.4,cm,185.4,185.4,cm,Y,0,SCREENING,2006-10-25,-8
ABC,VS,ABC-01-050,10,PULSE,Pulse Rate,,76,BEATS/MIN,76,76,BEATS/MIN,,0,SCREENING,2006-10-25,-8
ABC,VS,ABC-01-050,11,PULSE,Pulse Rate,,68,BEATS/MIN,68,68,BEATS/MIN,Y,1,DAY 1,2006-11-02,1
ABC,VS,ABC-01-050,12,PULSE,Pulse Rate,,68,BEATS/MIN,68,68,BEATS/MIN,,2,WEEK 2,2006-11-16,15
ABC,VS,ABC-01-050,13,PULSE,Pulse Rate,,82,BEATS/MIN,82,82,BEATS/MIN,,4,WEEK 4,2006-11-30,29
ABC,VS,ABC-01-050,14,PULSE,Pulse Rate,,72,BEATS/MIN,72,72,BEATS/MIN,,6,WEEK 6,2006-12-14,43
ABC,VS,ABC-01-050,15,PULSE,Pulse Rate,,80,BEATS/MIN,80,80,BEATS/MIN,,8,WEEK 8,2006-12-28,57
ABC,VS,ABC-01-050,16,PULSE,Pulse Rate,,72,BEATS/MIN,72,72,BEATS/MIN,,12,WEEK 12,2007-01-30,90
ABC,VS,ABC-01-050,17,PULSE,Pulse Rate,,88,BEATS/MIN,88,88,BEATS/MIN,,16,WEEK 16,2007-03-08,127
ABC,VS,ABC-01-050,18,RESP,Respiratory Rate,,16,BREATHS/MIN,16,16,BREATHS/MIN,,0,SCREENING,2006-10-25,-8
ABC,VS,ABC-01-050,19,RESP,Respiratory Rate,,18,BREATHS/MIN,18,18,BREATHS/MIN,Y,1,DAY 1,2006-11-02,1
ABC,VS,ABC-01-050,20,RESP,Respiratory Rate,,18,BREATHS/MIN,18,18,BREATHS/MIN,,2,WEEK 2,2006-11-16,15
ABC,VS,ABC-01-050,21,RESP,Respiratory Rate,,16,BREATHS/MIN,16,16,BREATHS/MIN,,4,WEEK 4,2006-11-30,29
ABC,VS,ABC-01-050,22,RESP,Respiratory Rate,,18,BREATHS/MIN,18,18,BREATHS/MIN,,6,WEEK 6,2006-12-14,43
ABC,VS,ABC-01-050,23,RESP,Respiratory Rate,,20,BREATHS/MIN,20,20,BREATHS/MIN,,8,WEEK 8,2006-12-28,57
ABC,VS,ABC-01-050,24,RESP,Respiratory Rate,,20,BREATHS/MIN,20,20,BREATHS/MIN,,12,WEEK 12,2007-01-30,90
ABC,VS,ABC-01-050,25,RESP,Respiratory Rate,,20,BREATHS/MIN,20,20,BREATHS/MIN,,16,WEEK 16,2007-03-08,127
ABC,VS,ABC-01-050,26,SYSBP,Systolic Blood Pressure,SITTING,122,mmHg,122,122,mmHg,,0,SCREENING,2006-10-25,-8
ABC,VS,ABC-01-050,27,SYSBP,Systolic Blood Pressure,SITTING,100,mmHg,100,100,mmHg,Y,1,DAY 1,2006-11-02,1
ABC,VS,ABC-01-050,28,SYSBP,Systolic Blood Pressure,SITTING,110,mmHg,110,110,mmHg,,2,WEEK 2,2006-11-16,15
ABC,VS,ABC-01-050,29,SYSBP,Systolic Blood Pressure,SITTING,128,mmHg,128,128,mmHg,,4,WEEK 4,2006-11-30,29
ABC,VS,ABC-01-050,30,SYSBP,Systolic Blood Pressure,SITTING,110,mmHg,110,110,mmHg,,6,WEEK 6,2006-12-14,43
ABC,VS,ABC-01-050,31,SYSBP,Systolic Blood Pressure,SITTING,120,mmHg,120,120,mmHg,,8,WEEK 8,2006-12-28,57
ABC,VS,ABC-01-050,32,SYSBP,Systolic Blood Pressure,SITTING,104,mmHg,104,104,mmHg,,12,WEEK 12,2007-01-30,90
ABC,VS,ABC-01-050,33,SYSBP,Systolic Blood Pressure,SITTING,120,mmHg,120,120,mmHg,,16,WEEK 16,2007-03-08,127
ABC,VS,ABC-01-050,34,TEMP,Temperature,,36.4,C,36.4,36.4,C,,0,SCREENING,2006-10-25,-8
ABC,VS,ABC-01-050,35,TEMP,Temperature,,36.7,C,36.7,36.7,C,Y,1,DAY 1,2006-11-02,1
ABC,VS,ABC-01-050,36,TEMP,Temperature,,36.7,C,36.7,36.7,C,,2,WEEK 2,2006-11-16,15
ABC,VS,ABC-01-050,37,TEMP,Temperature,,36.6,C,36.6,36.6,C,,4,WEEK 4,2006-11-30,29
ABC,VS,ABC-01-050,38,TEMP,Temperature,,37.3,C,37.3,37.3,C,,6,WEEK 6,2006-12-14,43
ABC,VS,ABC-01-050,39,TEMP,Temperature,,37.1,C,37.1,37.1,C,,8,WEEK 8,2006-12-28,57
ABC,VS,ABC-01-050,40,TEMP,Temperature,,37.2,C,37.2,37.2,C,,12,WEEK 12,2007-01-30,90
ABC,VS,ABC-01-050,41,TEMP,Temperature,,36.8,C,36.8,36.8,C,,16,WEEK 16,2007-03-08,127
ABC,VS,ABC-01-050,42,WEIGHT,Weight,,125.4,kg,125.4,125.4,kg,Y,0,SCREENING,2006-10-25,-8
ABC,VS,ABC-01-051,1,DIABP,Diastolic Blood Pressure,SITTING,90,mmHg,90,90,mmHg,Y,0,SCREENING,2006-10-25,-8
ABC,VS,ABC-01-051,2,DIABP,Diastolic Blood Pressure,SITTING,70,mmHg,70,70,mmHg,,2,WEEK 2,2006-11-16,15
ABC,VS,ABC-01-051,3,DIABP,Diastolic Blood Pressure,SITTING,84,mmHg,84,84,mmHg,,4,WEEK 4,2006-11-30,29
ABC,VS,ABC-01-051,4,DIABP,Diastolic Blood Pressure,SITTING,70,mmHg,70,70,mmHg,,6,WEEK 6,2006-12-14,43
ABC,VS,ABC-01-051,5,DIABP,Diastolic Blood Pressure,SITTING,84,mmHg,84,84,mmHg,,8,WEEK 8,2006-12-28,57
ABC,VS,ABC-01-051,6,DIABP,Diastolic Blood Pressure,SITTING,80,mmHg,80,80,mmHg,,12,WEEK 12,2007-01-30,90
ABC,VS,ABC-01-051,7,DIABP,Diastolic Blood Pressure,SITTING,84,mmHg,84,84,mmHg,,16,WEEK 16,2007-03-08,127
ABC,VS,ABC-01-051,8,HEIGHT,Height,,161,cm,161,161,cm,Y,0,SCREENING,2006-10-25,-8
ABC,VS,ABC-01-051,9,PULSE,Pulse Rate,,76,BEATS/MIN,76,76,BEATS/MIN,Y,0,SCREENING,2006-10-25,-8
ABC,VS,ABC-01-051,10,PULSE,Pulse Rate,,64,BEATS/MIN,64,64,BEATS/MIN,,2,WEEK 2,2006-11-16,15
ABC,VS,ABC-01-051,11,PULSE,Pulse Rate,,72,BEATS/MIN,72,72,BEATS/MIN,,4,WEEK 4,2006-11-30,29
ABC,VS,ABC-01-051,12,PULSE,Pulse Rate,,60,BEATS/MIN,60,60,BEATS/MIN,,6,WEEK 6,2006-12-14,43
ABC,VS,ABC-01-051,13,PULSE,Pulse Rate,,72,BEATS/MIN,72,72,BEATS/MIN,,8,WEEK 8,2006-12-28,57
ABC,VS,ABC-01-051,14,PULSE,Pulse Rate,,80,BEATS/MIN,80,80,BEATS/MIN,,12,WEEK 12,2007-01-30,90
ABC,VS,ABC-01-051,15,PULSE,Pulse Rate,,72,BEATS/MIN,72,72,BEATS/MIN,,16,WEEK 16,2007-03-08,127
ABC,VS,ABC-01-051,16,RESP,Respiratory Rate,,20,BREATHS/MIN,20,20,BREATHS/MIN,Y,0,SCREENING,2006-10-25,-8
ABC,VS,ABC-01-051,17,RESP,Respiratory Rate,,16,BREATHS/MIN,16,16,BREATHS/MIN,,2,WEEK 2,2006-11-16,15
ABC,VS,ABC-01-051,18,RESP,Respiratory Rate,,16,BREATHS/MIN,16,16,BREATHS/MIN,,4,WEEK 4,2006-11-30,29
ABC,VS,ABC-01-051,19,RESP,Respiratory Rate,,16,BREATHS/MIN,16,16,BREATHS/MIN,,6,WEEK 6,2006-12-14,43
ABC,VS,ABC-01-051,20,RESP,Respiratory Rate,,16,BREATHS/MIN,16,16,BREATHS/MIN,,8,WEEK 8,2006-12-28,57
ABC,VS,ABC-01-051,21,RESP,Respiratory Rate,,16,BREATHS/MIN,16,16,BREATHS/MIN,,12,WEEK 12,2007-01-30,90
ABC,VS,ABC-01-051,22,RESP,Respiratory Rate,,16,BREATHS/MIN,16,16,BREATHS/MIN,,16,WEEK 16,2007-03-08,127
ABC,VS,ABC-01-051,23,SYSBP,Systolic Blood Pressure,SITTING,140,mmHg,140,140,mmHg,Y,0,SCREENING,2006-10-25,-8
ABC,VS,ABC-01-051,24,SYSBP,Systolic Blood Pressure,SITTING,124,mmHg,124,124,mmHg,,2,WEEK 2,2006-11-16,15
ABC,VS,ABC-01-051,25,SYSBP,Systolic Blood Pressure,SITTING,128,mmHg,128,128,mmHg,,4,WEEK 4,2006-11-30,29
ABC,VS,ABC-01-051,26,SYSBP,Systolic Blood Pressure,SITTING,120,mmHg,120,120,mmHg,,6,WEEK 6,2006-12-14,43
ABC,VS,ABC-01-051,27,SYSBP,Systolic Blood Pressure,SITTING,130,mmHg,130,130,mmHg,,8,WEEK 8,2006-12-28,57
ABC,VS,ABC-01-051,28,SYSBP,Systolic Blood Pressure,SITTING,110,mmHg,110,110,mmHg,,12,WEEK 12,2007-01-30,90
ABC,VS,ABC-01-051,29,SYSBP,Systolic Blood Pressure,SITTING,130,mmHg,130,130,mmHg,,16,WEEK 16,2007-03-08,127
ABC,VS,ABC-01-051,30,TEMP,Temperature,,36.4,C,36.4,36.4,C,,2,WEEK 2,2006-11-16,15
ABC,VS,ABC-01-051,31,TEMP,Temperature,,36,C,36,36,C,,4,WEEK 4,2006-11-30,29
ABC,VS,ABC-01-051,32,TEMP,Temperature,,36.7,C,36.7,36.7,C,,6,WEEK 6,2006-12-14,43
ABC,VS,ABC-01-051,33,TEMP,Temperature,,36.4,C,36.4,36.4,C,,8,WEEK 8,2006-12-28,57
ABC,VS,ABC-01-051,34,TEMP,Temperature,,36.5,C,36.5,36.5,C,,12,WEEK 12,2007-01-30,90
ABC,VS,ABC-01-051,35,TEMP,Temperature,,36.4,C,36.4,36.4,C,,16,WEEK 16,2007-03-08,127
ABC,VS,ABC-01-051,36,WEIGHT,Weight,,116,kg,116,116,kg,Y,0,SCREENING,2006-10-25,-8
ABC,VS,ABC-01-052,1,DIABP,Diastolic Blood Pressure,SITTING,68,mmHg,68,68,mmHg,,0,SCREENING,2006-10-31,-6
ABC,VS,ABC-01-052,2,DIABP,Diastolic Blood Pressure,SITTING,68,mmHg,68,68,mmHg,Y,1,DAY 1,2006-11-06,1
ABC,VS,ABC-01-052,3,DIABP,Diastolic Blood Pressure,SITTING,58,mmHg,58,58,mmHg,,2,WEEK 2,2006-11-22,17
ABC,VS,ABC-01-052,4,DIABP,Diastolic Blood Pressure,SITTING,70,mmHg,70,70,mmHg,,4,WEEK 4,2006-12-04,29
ABC,VS,ABC-01-052,5,DIABP,Diastolic Blood Pressure,SITTING,60,mmHg,60,60,mmHg,,6,WEEK 6,2006-12-21,46
ABC,VS,ABC-01-052,6,DIABP,Diastolic Blood Pressure,SITTING,60,mmHg,60,60,mmHg,,8,WEEK 8,2007-01-03,59
ABC,VS,ABC-01-052,7,DIABP,Diastolic Blood Pressure,SITTING,68,mmHg,68,68,mmHg,,12,WEEK 12,2007-01-30,86
ABC,VS,ABC-01-052,8,DIABP,Diastolic Blood Pressure,SITTING,67,mmHg,67,67,mmHg,,16,WEEK 16,2007-03-05,120
ABC,VS,ABC-01-052,9,HEIGHT,Height,,132,cm,132,132,cm,Y,0,SCREENING,2006-10-31,-6
ABC,VS,ABC-01-052,10,PULSE,Pulse Rate,,72,BEATS/MIN,72,72,BEATS/MIN,,0,SCREENING,2006-10-31,-6
ABC,VS,ABC-01-052,11,PULSE,Pulse Rate,,68,BEATS/MIN,68,68,BEATS/MIN,Y,1,DAY 1,2006-11-06,1
ABC,VS,ABC-01-052,12,PULSE,Pulse Rate,,72,BEATS/MIN,72,72,BEATS/MIN,,2,WEEK 2,2006-11-22,17
ABC,VS,ABC-01-052,13,PULSE,Pulse Rate,,76,BEATS/MIN,76,76,BEATS/MIN,,4,WEEK 4,2006-12-04,29
ABC,VS,ABC-01-052,14,PULSE,Pulse Rate,,80,BEATS/MIN,80,80,BEATS/MIN,,6,WEEK 6,2006-12-21,46
ABC,VS,ABC-01-052,15,PULSE,Pulse Rate,,62,BEATS/MIN,62,62,BEATS/MIN,,8,WEEK 8,2007-01-03,59
ABC,VS,ABC-01-052,16,PULSE,Pulse Rate,,76,BEATS/MIN,76,76,BEATS/MIN,,12,WEEK 12,2007-01-30,86
ABC,VS,ABC-01-052,17,PULSE,Pulse Rate,,74,BEATS/MIN,74,74,BEATS/MIN,,16,WEEK 16,2007-03-05,120
ABC,VS,ABC-01-052,18,RESP,Respiratory Rate,,15,BREATHS/MIN,15,15,BREATHS/MIN,,0,SCREENING,2006-10-31,-6
ABC,VS,ABC-01-052,19,RESP,Respiratory Rate,,16,BREATHS/MIN,16,16,BREATHS/MIN,Y,1,DAY 1,2006-11-06,1
ABC,VS,ABC-01-052,20,RESP,Respiratory Rate,,16,BREATHS/MIN,16,16,BREATHS/MIN,,2,WEEK 2,2006-11-22,17
ABC,VS,ABC-01-052,21,RESP,Respiratory Rate,,20,BREATHS/MIN,20,20,BREATHS/MIN,,4,WEEK 4,2006-12-04,29
ABC,VS,ABC-01-052,22,RESP,Respiratory Rate,,16,BREATHS/MIN,16,16,BREATHS/MIN,,6,WEEK 6,2006-12-21,46
ABC,VS,ABC-01-052,23,RESP,Respiratory Rate,,16,BREATHS/MIN,16,16,BREATHS/MIN,,8,WEEK 8,2007-01-03,59
ABC,VS,ABC-01-052,24,RESP,Respiratory Rate,,20,BREATHS/MIN,20,20,BREATHS/MIN,,12,WEEK 12,2007-01-30,86
ABC,VS,ABC-01-052,25,RESP,Respiratory Rate,,24,BREATHS/MIN,24,24,BREATHS/MIN,,16,WEEK 16,2007-03-05,120
ABC,VS,ABC-01-052,26,SYSBP,Systolic Blood Pressure,SITTING,96,mmHg,96,96,mmHg,,0,SCREENING,2006-10-31,-6
ABC,VS,ABC-01-052,27,SYSBP,Systolic Blood Pressure,SITTING,100,mmHg,100,100,mmHg,Y,1,DAY 1,2006-11-06,1
ABC,VS,ABC-01-052,28,SYSBP,Systolic Blood Pressure,SITTING,100,mmHg,100,100,mmHg,,2,WEEK 2,2006-11-22,17
ABC,VS,ABC-01-052,29,SYSBP,Systolic Blood Pressure,SITTING,110,mmHg,110,110,mmHg,,4,WEEK 4,2006-12-04,29
ABC,VS,ABC-01-052,30,SYSBP,Systolic Blood Pressure,SITTING,98,mmHg,98,98,mmHg,,6,WEEK 6,2006-12-21,46
ABC,VS,ABC-01-052,31,SYSBP,Systolic Blood Pressure,SITTING,98,mmHg,98,98,mmHg,,8,WEEK 8,2007-01-03,59
ABC,VS,ABC-01-052,32,SYSBP,Systolic Blood Pressure,SITTING,90,mmHg,90,90,mmHg,,12,WEEK 12,2007-01-30,86
ABC,VS,ABC-01-052,33,SYSBP,Systolic Blood Pressure,SITTING,100,mmHg,100,100,mmHg,,16,WEEK 16,2007-03-05,120
ABC,VS,ABC-01-052,34,TEMP,Temperature,,36.2,C,36.2,36.2,C,,0,SCREENING,2006-10-31,-6
ABC,VS,ABC-01-052,35,TEMP,Temperature,,36.3,C,36.3,36.3,C,Y,1,DAY 1,2006-11-06,1
ABC,VS,ABC-01-052,36,TEMP,Temperature,,37.1,C,37.1,37.1,C,,2,WEEK 2,2006-11-22,17
ABC,VS,ABC-01-052,37,TEMP,Temperature,,36.4,C,36.4,36.4,C,,4,WEEK 4,2006-12-04,29
ABC,VS,ABC-01-052,38,TEMP,Temperature,,36.2,C,36.2,36.2,C,,6,WEEK 6,2006-12-21,46
ABC,VS,ABC-01-052,39,TEMP,Temperature,,36.9,C,36.9,36.9,C,,8,WEEK 8,2007-01-03,59
ABC,VS,ABC-01-052,40,TEMP,Temperature,,36.8,C,36.8,36.8,C,,12,WEEK 12,2007-01-30,86
ABC,VS,ABC-01-052,41,TEMP,Temperature,,36.7,C,36.7,36.7,C,,16,WEEK 16,2007-03-05,120
ABC,VS,ABC-01-052,42,WEIGHT,Weight,,69.5,kg,69.5,69.5,kg,Y,0,SCREENING,2006-10-31,-6
ABC,VS,ABC-01-053,1,DIABP,Diastolic Blood Pressure,SITTING,72,mmHg,72,72,mmHg,,0,SCREENING,2006-11-01,-7
ABC,VS,ABC-01-053,2,DIABP,Diastolic Blood Pressure,SITTING,78,mmHg,78,78,mmHg,Y,1,DAY 1,2006-11-08,1
ABC,VS,ABC-01-053,3,DIABP,Diastolic Blood Pressure,SITTING,78,mmHg,78,78,mmHg,,2,WEEK 2,2006-11-22,15
ABC,VS,ABC-01-053,4,DIABP,Diastolic Blood Pressure,SITTING,64,mmHg,64,64,mmHg,,4,WEEK 4,2006-12-12,35
ABC,VS,ABC-01-053,5,HEIGHT,Height,,173,cm,173,173,cm,Y,0,SCREENING,2006-11-01,-7
ABC,VS,ABC-01-053,6,PULSE,Pulse Rate,,80,BEATS/MIN,80,80,BEATS/MIN,,0,SCREENING,2006-11-01,-7
ABC,VS,ABC-01-053,7,PULSE,Pulse Rate,,62,BEATS/MIN,62,62,BEATS/MIN,Y,1,DAY 1,2006-11-08,1
ABC,VS,ABC-01-053,8,PULSE,Pulse Rate,,80,BEATS/MIN,80,80,BEATS/MIN,,2,WEEK 2,2006-11-22,15
ABC,VS,ABC-01-053,9,PULSE,Pulse Rate,,72,BEATS/MIN,72,72,BEATS/MIN,,4,WEEK 4,2006-12-12,35
ABC,VS,ABC-01-053,10,RESP,Respiratory Rate,,20,BREATHS/MIN,20,20,BREATHS/MIN,,0,SCREENING,2006-11-01,-7
ABC,VS,ABC-01-053,11,RESP,Respiratory Rate,,16,BREATHS/MIN,16,16,BREATHS/MIN,Y,1,DAY 1,2006-11-08,1
ABC,VS,ABC-01-053,12,RESP,Respiratory Rate,,16,BREATHS/MIN,16,16,BREATHS/MIN,,2,WEEK 2,2006-11-22,15
ABC,VS,ABC-01-053,13,RESP,Respiratory Rate,,16,BREATHS/MIN,16,16,BREATHS/MIN,,4,WEEK 4,2006-12-12,35
ABC,VS,ABC-01-053,14,SYSBP,Systolic Blood Pressure,SITTING,110,mmHg,110,110,mmHg,,0,SCREENING,2006-11-01,-7
ABC,VS,ABC-01-053,15,SYSBP,Systolic Blood Pressure,SITTING,104,mmHg,104,104,mmHg,Y,1,DAY 1,2006-11-08,1
ABC,VS,ABC-01-053,16,SYSBP,Systolic Blood Pressure,SITTING,122,mmHg,122,122,mmHg,,2,WEEK 2,2006-11-22,15
ABC,VS,ABC-01-053,17,SYSBP,Systolic Blood Pressure,SITTING,110,mmHg,110,110,mmHg,,4,WEEK 4,2006-12-12,35
ABC,VS,ABC-01-053,18,TEMP,Temperature,,36.3,C,36.3,36.3,C,,0,SCREENING,2006-11-01,-7
ABC,VS,ABC-01-053,19,TEMP,Temperature,,35.7,C,35.7,35.7,C,Y,1,DAY 1,2006-11-08,1
ABC,VS,ABC-01-053,20,TEMP,Temperature,,36.9,C,36.9,36.9,C,,4,WEEK 4,2006-12-12,35
ABC,VS,ABC-01-053,21,WEIGHT,Weight,,71.8,kg,71.8,71.8,kg,Y,0,SCREENING,2006-11-01,-7
ABC,VS,ABC-01-054,1,DIABP,Diastolic Blood Pressure,SITTING,82,mmHg,82,82,mmHg,,2,WEEK 2,2006-11-30,15
ABC,VS,ABC-01-054,2,DIABP,Diastolic Blood Pressure,SITTING,90,mmHg,90,90,mmHg,,4,WEEK 4,2006-12-14,29
ABC,VS,ABC-01-054,3,DIABP,Diastolic Blood Pressure,SITTING,100,mmHg,100,100,mmHg,,6,WEEK 6,2006-12-28,43
ABC,VS,ABC-01-054,4,DIABP,Diastolic Blood Pressure,SITTING,98,mmHg,98,98,mmHg,,8,WEEK 8,2007-01-29,75
ABC,VS,ABC-01-054,5,DIABP,Diastolic Blood Pressure,SITTING,90,mmHg,90,90,mmHg,,16,WEEK 16,2007-04-04,140
ABC,VS,ABC-01-054,6,HEIGHT,Height,,185,cm,185,185,cm,Y,0,SCREENING,2006-11-07,-9
ABC,VS,ABC-01-054,7,PULSE,Pulse Rate,,100,BEATS/MIN,100,100,BEATS/MIN,,0,SCREENING,2006-11-07,-9
ABC,VS,ABC-01-054,8,PULSE,Pulse Rate,,92,BEATS/MIN,92,92,BEATS/MIN,Y,1,DAY 1,2006-11-16,1
ABC,VS,ABC-01-054,9,PULSE,Pulse Rate,,76,BEATS/MIN,76,76,BEATS/MIN,,2,WEEK 2,2006-11-30,15
ABC,VS,ABC-01-054,10,PULSE,Pulse Rate,,82,BEATS/MIN,82,82,BEATS/MIN,,4,WEEK 4,2006-12-14,29
ABC,VS,ABC-01-054,11,PULSE,Pulse Rate,,76,BEATS/MIN,76,76,BEATS/MIN,,6,WEEK 6,2006-12-28,43
ABC,VS,ABC-01-054,12,PULSE,Pulse Rate,,72,BEATS/MIN,72,72,BEATS/MIN,,8,WEEK 8,2007-01-29,75
ABC,VS,ABC-01-054,13,PULSE,Pulse Rate,,84,BEATS/MIN,84,84,BEATS/MIN,,12,WEEK 12,2007-02-20,97
ABC,VS,ABC-01-054,14,PULSE,Pulse Rate,,80,BEATS/MIN,80,80,BEATS/MIN,,16,WEEK 16,2007-04-04,140
ABC,VS,ABC-01-054,15,RESP,Respiratory Rate,,20,BREATHS/MIN,20,20,BREATHS/MIN,,0,SCREENING,2006-11-07,-9
ABC,VS,ABC-01-054,16,RESP,Respiratory Rate,,16,BREATHS/MIN,16,16,BREATHS/MIN,Y,1,DAY 1,2006-11-16,1
ABC,VS,ABC-01-054,17,RESP,Respiratory Rate,,20,BREATHS/MIN,20,20,BREATHS/MIN,,2,WEEK 2,2006-11-30,15
ABC,VS,ABC-01-054,18,RESP,Respiratory Rate,,20,BREATHS/MIN,20,20,BREATHS/MIN,,4,WEEK 4,2006-12-14,29
ABC,VS,ABC-01-054,19,RESP,Respiratory Rate,,20,BREATHS/MIN,20,20,BREATHS/MIN,,6,WEEK 6,2006-12-28,43
ABC,VS,ABC-01-054,20,RESP,Respiratory Rate,,20,BREATHS/MIN,20,20,BREATHS/MIN,,8,WEEK 8,2007-01-29,75
ABC,VS,ABC-01-054,21,RESP,Respiratory Rate,,20,BREATHS/MIN,20,20,BREATHS/MIN,,12,WEEK 12,2007-02-20,97
ABC,VS,ABC-01-054,22,RESP,Respiratory Rate,,20,BREATHS/MIN,20,20,BREATHS/MIN,,16,WEEK 16,2007-04-04,140
ABC,VS,ABC-01-054,23,SYSBP,Systolic Blood Pressure,SITTING,140,mmHg,140,140,mmHg,,2,WEEK 2,2006-11-30,15
ABC,VS,ABC-01-054,24,SYSBP,Systolic Blood Pressure,SITTING,160,mmHg,160,160,mmHg,,4,WEEK 4,2006-12-14,29
ABC,VS,ABC-01-054,25,SYSBP,Systolic Blood Pressure,SITTING,138,mmHg,138,138,mmHg,,6,WEEK 6,2006-12-28,43
ABC,VS,ABC-01-054,26,SYSBP,Systolic Blood Pressure,SITTING,160,mmHg,160,160,mmHg,,8,WEEK 8,2007-01-29,75
ABC,VS,ABC-01-054,27,SYSBP,Systolic Blood Pressure,SITTING,160,mmHg,160,160,mmHg,,16,WEEK 16,2007-04-04,140
ABC,VS,ABC-01-054,28,TEMP,Temperature,,36.6,C,36.6,36.6,C,,0,SCREENING,2006-11-07,-9
ABC,VS,ABC-01-054,29,TEMP,Temperature,,36.6,C,36.6,36.6,C,Y,1,DAY 1,2006-11-16,1
ABC,VS,ABC-01-054,30,TEMP,Temperature,,36.3,C,36.3,36.3,C,,2,WEEK 2,2006-11-30,15
ABC,VS,ABC-01-054,31,TEMP,Temperature,,36.2,C,36.2,36.2,C,,4,WEEK 4,2006-12-14,29
ABC,VS,ABC-01-054,32,TEMP,Temperature,,36.2,C,36.2,36.2,C,,6,WEEK 6,2006-12-28,43
ABC,VS,ABC-01-054,33,TEMP,Temperature,,36.9,C,36.9,36.9,C,,8,WEEK 8,2007-01-29,75
ABC,VS,ABC-01-054,34,TEMP,Temperature,,37,C,37,37,C,,12,WEEK 12,2007-02-20,97
ABC,VS,ABC-01-054,35,TEMP,Temperature,,36.7,C,36.7,36.7,C,,16,WEEK 16,2007-04-04,140
ABC,VS,ABC-01-054,36,WEIGHT,Weight,,137,kg,137,137,kg,Y,0,SCREENING,2006-11-07,-9
ABC,VS,ABC-01-055,1,DIABP,Diastolic Blood Pressure,SITTING,82,mmHg,82,82,mmHg,,0,SCREENING,2006-10-31,-36
ABC,VS,ABC-01-055,2,DIABP,Diastolic Blood Pressure,SITTING,80,mmHg,80,80,mmHg,Y,1,DAY 1,2006-11-21,-15
ABC,VS,ABC-01-055,3,DIABP,Diastolic Blood Pressure,SITTING,88,mmHg,88,88,mmHg,,2,WEEK 2,2006-12-18,13
ABC,VS,ABC-01-055,4,DIABP,Diastolic Blood Pressure,SITTING,74,mmHg,74,74,mmHg,,4,WEEK 4,2007-01-03,29
ABC,VS,ABC-01-055,5,DIABP,Diastolic Blood Pressure,SITTING,78,mmHg,78,78,mmHg,,6,WEEK 6,2007-01-23,49
ABC,VS,ABC-01-055,6,DIABP,Diastolic Blood Pressure,SITTING,80,mmHg,80,80,mmHg,,8,WEEK 8,2007-02-09,66
ABC,VS,ABC-01-055,7,DIABP,Diastolic Blood Pressure,SITTING,88,mmHg,88,88,mmHg,,12,WEEK 12,2007-03-28,113
ABC,VS,ABC-01-055,8,DIABP,Diastolic Blood Pressure,SITTING,80,mmHg,80,80,mmHg,,16,WEEK 16,2007-04-23,139
ABC,VS,ABC-01-055,9,HEIGHT,Height,,131,cm,131,131,cm,Y,0,SCREENING,2006-10-31,-36
ABC,VS,ABC-01-055,10,PULSE,Pulse Rate,,72,BEATS/MIN,72,72,BEATS/MIN,,0,SCREENING,2006-10-31,-36
ABC,VS,ABC-01-055,11,PULSE,Pulse Rate,,76,BEATS/MIN,76,76,BEATS/MIN,Y,1,DAY 1,2006-11-21,-15
ABC,VS,ABC-01-055,12,PULSE,Pulse Rate,,84,BEATS/MIN,84,84,BEATS/MIN,,2,WEEK 2,2006-12-18,13
ABC,VS,ABC-01-055,13,PULSE,Pulse Rate,,78,BEATS/MIN,78,78,BEATS/MIN,,4,WEEK 4,2007-01-03,29
ABC,VS,ABC-01-055,14,PULSE,Pulse Rate,,76,BEATS/MIN,76,76,BEATS/MIN,,6,WEEK 6,2007-01-23,49
ABC,VS,ABC-01-055,15,PULSE,Pulse Rate,,68,BEATS/MIN,68,68,BEATS/MIN,,8,WEEK 8,2007-02-09,66
ABC,VS,ABC-01-055,16,PULSE,Pulse Rate,,84,BEATS/MIN,84,84,BEATS/MIN,,12,WEEK 12,2007-03-28,113
ABC,VS,ABC-01-055,17,PULSE,Pulse Rate,,68,BEATS/MIN,68,68,BEATS/MIN,,16,WEEK 16,2007-04-23,139
ABC,VS,ABC-01-055,18,RESP,Respiratory Rate,,16,BREATHS/MIN,16,16,BREATHS/MIN,,0,SCREENING,2006-10-31,-36
ABC,VS,ABC-01-055,19,RESP,Respiratory Rate,,20,BREATHS/MIN,20,20,BREATHS/MIN,Y,1,DAY 1,2006-11-21,-15
ABC,VS,ABC-01-055,20,RESP,Respiratory Rate,,20,BREATHS/MIN,20,20,BREATHS/MIN,,2,WEEK 2,2006-12-18,13
ABC,VS,ABC-01-055,21,RESP,Respiratory Rate,,16,BREATHS/MIN,16,16,BREATHS/MIN,,4,WEEK 4,2007-01-03,29
ABC,VS,ABC-01-055,22,RESP,Respiratory Rate,,18,BREATHS/MIN,18,18,BREATHS/MIN,,6,WEEK 6,2007-01-23,49
ABC,VS,ABC-01-055,23,RESP,Respiratory Rate,,16,BREATHS/MIN,16,16,BREATHS/MIN,,8,WEEK 8,2007-02-09,66
ABC,VS,ABC-01-055,24,RESP,Respiratory Rate,,18,BREATHS/MIN,18,18,BREATHS/MIN,,12,WEEK 12,2007-03-28,113
ABC,VS,ABC-01-055,25,RESP,Respiratory Rate,,16,BREATHS/MIN,16,16,BREATHS/MIN,,16,WEEK 16,2007-04-23,139
ABC,VS,ABC-01-055,26,SYSBP,Systolic Blood Pressure,SITTING,120,mmHg,120,120,mmHg,,0,SCREENING,2006-10-31,-36
ABC,VS,ABC-01-055,27,SYSBP,Systolic Blood Pressure,SITTING,140,mmHg,140,140,mmHg,Y,1,DAY 1,2006-11-21,-15
ABC,VS,ABC-01-055,28,SYSBP,Systolic Blood Pressure,SITTING,130,mmHg,130,130,mmHg,,2,WEEK 2,2006-12-18,13
ABC,VS,ABC-01-055,29,SYSBP,Systolic Blood Pressure,SITTING,130,mmHg,130,130,mmHg,,4,WEEK 4,2007-01-03,29
ABC,VS,ABC-01-055,30,SYSBP,Systolic Blood Pressure,SITTING,140,mmHg,140,140,mmHg,,6,WEEK 6,2007-01-23,49
ABC,VS,ABC-01-055,31,SYSBP,Systolic Blood Pressure,SITTING,120,mmHg,120,120,mmHg,,8,WEEK 8,2007-02-09,66
ABC,VS,ABC-01-055,32,SYSBP,Systolic Blood Pressure,SITTING,127,mmHg,127,127,mmHg,,12,WEEK 12,2007-03-28,113
ABC,VS,ABC-01-055,33,SYSBP,Systolic Blood Pressure,SITTING,122,mmHg,122,122,mmHg,,16,WEEK 16,2007-04-23,139
ABC,VS,ABC-01-055,34,TEMP,Temperature,,37.4,C,37.4,37.4,C,,0,SCREENING,2006-10-31,-36
ABC,VS,ABC-01-055,35,TEMP,Temperature,,36.7,C,36.7,36.7,C,Y,1,DAY 1,2006-11-21,-15
ABC,VS,ABC-01-055,36,TEMP,Temperature,,37.1,C,37.1,37.1,C,,2,WEEK 2,2006-12-18,13
ABC,VS,ABC-01-055,37,TEMP,Temperature,,36.4,C,36.4,36.4,C,,4,WEEK 4,2007-01-03,29
ABC,VS,ABC-01-055,38,TEMP,Temperature,,36.5,C,36.5,36.5,C,,6,WEEK 6,2007-01-23,49
ABC,VS,ABC-01-055,39,TEMP,Temperature,,36.4,C,36.4,36.4,C,,8,WEEK 8,2007-02-09,66
ABC,VS,ABC-01-055,40,TEMP,Temperature,,35.6,C,35.6,35.6,C,,12,WEEK 12,2007-03-28,113
ABC,VS,ABC-01-055,41,TEMP,Temperature,,36.8,C,36.8,36.8,C,,16,WEEK 16,2007-04-23,139
ABC,VS,ABC-01-055,42,WEIGHT,Weight,,77,kg,77,77,kg,Y,0,SCREENING,2006-10-31,-36
ABC,VS,ABC-01-056,1,DIABP,Diastolic Blood Pressure,SITTING,82,mmHg,82,82,mmHg,,0,SCREENING,2006-11-21,-7
ABC,VS,ABC-01-056,2,DIABP,Diastolic Blood Pressure,SITTING,84,mmHg,84,84,mmHg,Y,1,DAY 1,2006-11-28,1
ABC,VS,ABC-01-056,3,DIABP,Diastolic Blood Pressure,SITTING,88,mmHg,88,88,mmHg,,2,WEEK 2,2006-12-13,16
ABC,VS,ABC-01-056,4,DIABP,Diastolic Blood Pressure,SITTING,80,mmHg,80,80,mmHg,,4,WEEK 4,2006-12-27,30
ABC,VS,ABC-01-056,5,DIABP,Diastolic Blood Pressure,SITTING,86,mmHg,86,86,mmHg,,6,WEEK 6,2007-01-10,44
ABC,VS,ABC-01-056,6,DIABP,Diastolic Blood Pressure,SITTING,84,mmHg,84,84,mmHg,,8,WEEK 8,2007-01-24,58
ABC,VS,ABC-01-056,7,DIABP,Diastolic Blood Pressure,SITTING,84,mmHg,84,84,mmHg,,12,WEEK 12,2007-02-21,86
ABC,VS,ABC-01-056,8,DIABP,Diastolic Blood Pressure,SITTING,90,mmHg,90,90,mmHg,,16,WEEK 16,2007-03-22,115
ABC,VS,ABC-01-056,9,HEIGHT,Height,,184,cm,184,184,cm,Y,0,SCREENING,2006-11-21,-7
ABC,VS,ABC-01-056,10,PULSE,Pulse Rate,,76,BEATS/MIN,76,76,BEATS/MIN,,0,SCREENING,2006-11-21,-7
ABC,VS,ABC-01-056,11,PULSE,Pulse Rate,,82,BEATS/MIN,82,82,BEATS/MIN,Y,1,DAY 1,2006-11-28,1
ABC,VS,ABC-01-056,12,PULSE,Pulse Rate,,64,BEATS/MIN,64,64,BEATS/MIN,,2,WEEK 2,2006-12-13,16
ABC,VS,ABC-01-056,13,PULSE,Pulse Rate,,76,BEATS/MIN,76,76,BEATS/MIN,,4,WEEK 4,2006-12-27,30
ABC,VS,ABC-01-056,14,PULSE,Pulse Rate,,64,BEATS/MIN,64,64,BEATS/MIN,,6,WEEK 6,2007-01-10,44
ABC,VS,ABC-01-056,15,PULSE,Pulse Rate,,64,BEATS/MIN,64,64,BEATS/MIN,,8,WEEK 8,2007-01-24,58
ABC,VS,ABC-01-056,16,PULSE,Pulse Rate,,76,BEATS/MIN,76,76,BEATS/MIN,,12,WEEK 12,2007-02-21,86
ABC,VS,ABC-01-056,17,PULSE,Pulse Rate,,88,BEATS/MIN,88,88,BEATS/MIN,,16,WEEK 16,2007-03-22,115
ABC,VS,ABC-01-056,18,RESP,Respiratory Rate,,16,BREATHS/MIN,16,16,BREATHS/MIN,,0,SCREENING,2006-11-21,-7
ABC,VS,ABC-01-056,19,RESP,Respiratory Rate,,20,BREATHS/MIN,20,20,BREATHS/MIN,Y,1,DAY 1,2006-11-28,1
ABC,VS,ABC-01-056,20,RESP,Respiratory Rate,,16,BREATHS/MIN,16,16,BREATHS/MIN,,2,WEEK 2,2006-12-13,16
ABC,VS,ABC-01-056,21,RESP,Respiratory Rate,,20,BREATHS/MIN,20,20,BREATHS/MIN,,4,WEEK 4,2006-12-27,30
ABC,VS,ABC-01-056,22,RESP,Respiratory Rate,,20,BREATHS/MIN,20,20,BREATHS/MIN,,6,WEEK 6,2007-01-10,44
ABC,VS,ABC-01-056,23,RESP,Respiratory Rate,,20,BREATHS/MIN,20,20,BREATHS/MIN,,8,WEEK 8,2007-01-24,58
ABC,VS,ABC-01-056,24,RESP,Respiratory Rate,,18,BREATHS/MIN,18,18,BREATHS/MIN,,12,WEEK 12,2007-02-21,86
ABC,VS,ABC-01-056,25,RESP,Respiratory Rate,,18,BREATHS/MIN,18,18,BREATHS/MIN,,16,WEEK 16,2007-03-22,115
ABC,VS,ABC-01-056,26,SYSBP,Systolic Blood Pressure,SITTING,138,mmHg,138,138,mmHg,,0,SCREENING,2006-11-21,-7
ABC,VS,ABC-01-056,27,SYSBP,Systolic Blood Pressure,SITTING,112,mmHg,112,112,mmHg,Y,1,DAY 1,2006-11-28,1
ABC,VS,ABC-01-056,28,SYSBP,Systolic Blood Pressure,SITTING,114,mmHg,114,114,mmHg,,2,WEEK 2,2006-12-13,16
ABC,VS,ABC-01-056,29,SYSBP,Systolic Blood Pressure,SITTING,134,mmHg,134,134,mmHg,,4,WEEK 4,2006-12-27,30
ABC,VS,ABC-01-056,30,SYSBP,Systolic Blood Pressure,SITTING,112,mmHg,112,112,mmHg,,6,WEEK 6,2007-01-10,44
ABC,VS,ABC-01-056,31,SYSBP,Systolic Blood Pressure,SITTING,138,mmHg,138,138,mmHg,,8,WEEK 8,2007-01-24,58
ABC,VS,ABC-01-056,32,SYSBP,Systolic Blood Pressure,SITTING,120,mmHg,120,120,mmHg,,12,WEEK 12,2007-02-21,86
ABC,VS,ABC-01-056,33,SYSBP,Systolic Blood Pressure,SITTING,138,mmHg,138,138,mmHg,,16,WEEK 16,2007-03-22,115
ABC,VS,ABC-01-056,34,TEMP,Temperature,,36.6,C,36.6,36.6,C,,0,SCREENING,2006-11-21,-7
ABC,VS,ABC-01-056,35,TEMP,Temperature,,37,C,37,37,C,Y,1,DAY 1,2006-11-28,1
ABC,VS,ABC-01-056,36,TEMP,Temperature,,37.1,C,37.1,37.1,C,,2,WEEK 2,2006-12-13,16
ABC,VS,ABC-01-056,37,TEMP,Temperature,,36.5,C,36.5,36.5,C,,4,WEEK 4,2006-12-27,30
ABC,VS,ABC-01-056,38,TEMP,Temperature,,36.7,C,36.7,36.7,C,,6,WEEK 6,2007-01-10,44
ABC,VS,ABC-01-056,39,TEMP,Temperature,,36.8,C,36.8,36.8,C,,8,WEEK 8,2007-01-24,58
ABC,VS,ABC-01-056,40,TEMP,Temperature,,36.9,C,36.9,36.9,C,,12,WEEK 12,2007-02-21,86
ABC,VS,ABC-01-056,41,TEMP,Temperature,,36.6,C,36.6,36.6,C,,16,WEEK 16,2007-03-22,115
ABC,VS,ABC-01-056,42,WEIGHT,Weight,,113.8,kg,113.8,113.8,kg,Y,0,SCREENING,2006-11-21,-7
ABC,VS,ABC-01-113,1,DIABP,Diastolic Blood Pressure,SITTING,80,mmHg,80,80,mmHg,,0,SCREENING,2006-11-28,-7
ABC,VS,ABC-01-113,2,DIABP,Diastolic Blood Pressure,SITTING,72,mmHg,72,72,mmHg,Y,1,DAY 1,2006-12-05,1
ABC,VS,ABC-01-113,3,DIABP,Diastolic Blood Pressure,SITTING,84,mmHg,84,84,mmHg,,2,WEEK 2,2006-12-19,15
ABC,VS,ABC-01-113,4,DIABP,Diastolic Blood Pressure,SITTING,86,mmHg,86,86,mmHg,,4,WEEK 4,2007-01-03,30
ABC,VS,ABC-01-113,5,DIABP,Diastolic Blood Pressure,SITTING,80,mmHg,80,80,mmHg,,6,WEEK 6,2007-01-22,49
ABC,VS,ABC-01-113,6,DIABP,Diastolic Blood Pressure,SITTING,84,mmHg,84,84,mmHg,,8,WEEK 8,2007-02-07,65
ABC,VS,ABC-01-113,7,DIABP,Diastolic Blood Pressure,SITTING,100,mmHg,100,100,mmHg,,12,WEEK 12,2007-03-06,92
ABC,VS,ABC-01-113,8,DIABP,Diastolic Blood Pressure,SITTING,104,mmHg,104,104,mmHg,,16,WEEK 16,2007-04-03,120
ABC,VS,ABC-01-113,9,HEIGHT,Height,,177,cm,177,177,cm,Y,0,SCREENING,2006-11-28,-7
ABC,VS,ABC-01-113,10,PULSE,Pulse Rate,,82,BEATS/MIN,82,82,BEATS/MIN,,0,SCREENING,2006-11-28,-7
ABC,VS,ABC-01-113,11,PULSE,Pulse Rate,,80,BEATS/MIN,80,80,BEATS/MIN,Y,1,DAY 1,2006-12-05,1
ABC,VS,ABC-01-113,12,PULSE,Pulse Rate,,84,BEATS/MIN,84,84,BEATS/MIN,,2,WEEK 2,2006-12-19,15
ABC,VS,ABC-01-113,13,PULSE,Pulse Rate,,76,BEATS/MIN,76,76,BEATS/MIN,,4,WEEK 4,2007-01-03,30
ABC,VS,ABC-01-113,14,PULSE,Pulse Rate,,60,BEATS/MIN,60,60,BEATS/MIN,,6,WEEK 6,2007-01-22,49
ABC,VS,ABC-01-113,15,PULSE,Pulse Rate,,64,BEATS/MIN,64,64,BEATS/MIN,,8,WEEK 8,2007-02-07,65
ABC,VS,ABC-01-113,16,PULSE,Pulse Rate,,72,BEATS/MIN,72,72,BEATS/MIN,,12,WEEK 12,2007-03-06,92
ABC,VS,ABC-01-113,17,PULSE,Pulse Rate,,72,BEATS/MIN,72,72,BEATS/MIN,,16,WEEK 16,2007-04-03,120
ABC,VS,ABC-01-113,18,RESP,Respiratory Rate,,20,BREATHS/MIN,20,20,BREATHS/MIN,,0,SCREENING,2006-11-28,-7
ABC,VS,ABC-01-113,19,RESP,Respiratory Rate,,20,BREATHS/MIN,20,20,BREATHS/MIN,Y,1,DAY 1,2006-12-05,1
ABC,VS,ABC-01-113,20,RESP,Respiratory Rate,,20,BREATHS/MIN,20,20,BREATHS/MIN,,2,WEEK 2,2006-12-19,15
ABC,VS,ABC-01-113,21,RESP,Respiratory Rate,,18,BREATHS/MIN,18,18,BREATHS/MIN,,4,WEEK 4,2007-01-03,30
ABC,VS,ABC-01-113,22,RESP,Respiratory Rate,,16,BREATHS/MIN,16,16,BREATHS/MIN,,6,WEEK 6,2007-01-22,49
ABC,VS,ABC-01-113,23,RESP,Respiratory Rate,,20,BREATHS/MIN,20,20,BREATHS/MIN,,8,WEEK 8,2007-02-07,65
ABC,VS,ABC-01-113,24,RESP,Respiratory Rate,,15,BREATHS/MIN,15,15,BREATHS/MIN,,12,WEEK 12,2007-03-06,92
ABC,VS,ABC-01-113,25,RESP,Respiratory Rate,,16,BREATHS/MIN,16,16,BREATHS/MIN,,16,WEEK 16,2007-04-03,120
ABC,VS,ABC-01-113,26,SYSBP,Systolic Blood Pressure,SITTING,130,mmHg,130,130,mmHg,,0,SCREENING,2006-11-28,-7
ABC,VS,ABC-01-113,27,SYSBP,Systolic Blood Pressure,SITTING,140,mmHg,140,140,mmHg,Y,1,DAY 1,2006-12-05,1
ABC,VS,ABC-01-113,28,SYSBP,Systolic Blood Pressure,SITTING,120,mmHg,120,120,mmHg,,2,WEEK 2,2006-12-19,15
ABC,VS,ABC-01-113,29,SYSBP,Systolic Blood Pressure,SITTING,156,mmHg,156,156,mmHg,,4,WEEK 4,2007-01-03,30
ABC,VS,ABC-01-113,30,SYSBP,Systolic Blood Pressure,SITTING,112,mmHg,112,112,mmHg,,6,WEEK 6,2007-01-22,49
ABC,VS,ABC-01-113,31,SYSBP,Systolic Blood Pressure,SITTING,158,mmHg,158,158,mmHg,,8,WEEK 8,2007-02-07,65
ABC,VS,ABC-01-113,32,SYSBP,Systolic Blood Pressure,SITTING,178,mmHg,178,178,mmHg,,12,WEEK 12,2007-03-06,92
ABC,VS,ABC-01-113,33,SYSBP,Systolic Blood Pressure,SITTING,180,mmHg,180,180,mmHg,,16,WEEK 16,2007-04-03,120
ABC,VS,ABC-01-113,34,TEMP,Temperature,,36.3,C,36.3,36.3,C,,0,SCREENING,2006-11-28,-7
ABC,VS,ABC-01-113,35,TEMP,Temperature,,36.1,C,36.1,36.1,C,Y,1,DAY 1,2006-12-05,1
ABC,VS,ABC-01-113,36,TEMP,Temperature,,35,C,35,35,C,,2,WEEK 2,2006-12-19,15
ABC,VS,ABC-01-113,37,TEMP,Temperature,,35.7,C,35.7,35.7,C,,4,WEEK 4,2007-01-03,30
ABC,VS,ABC-01-113,38,TEMP,Temperature,,36.4,C,36.4,36.4,C,,6,WEEK 6,2007-01-22,49
ABC,VS,ABC-01-113,39,TEMP,Temperature,,36.1,C,36.1,36.1,C,,8,WEEK 8,2007-02-07,65
ABC,VS,ABC-01-113,40,TEMP,Temperature,,36.7,C,36.7,36.7,C,,12,WEEK 12,2007-03-06,92
ABC,VS,ABC-01-113,41,TEMP,Temperature,,36,C,36,36,C,,16,WEEK 16,2007-04-03,120
ABC,VS,ABC-01-113,42,WEIGHT,Weight,,86.2,kg,86.2,86.2,kg,Y,0,SCREENING,2006-11-28,-7
ABC,VS,ABC-01-114,1,DIABP,Diastolic Blood Pressure,SITTING,90,mmHg,90,90,mmHg,,0,SCREENING,2006-12-01,-13
ABC,VS,ABC-01-114,2,DIABP,Diastolic Blood Pressure,SITTING,88,mmHg,88,88,mmHg,Y,1,DAY 1,2006-12-14,1
ABC,VS,ABC-01-114,3,DIABP,Diastolic Blood Pressure,SITTING,88,mmHg,88,88,mmHg,,2,WEEK 2,2006-12-28,15
ABC,VS,ABC-01-114,4,DIABP,Diastolic Blood Pressure,SITTING,80,mmHg,80,80,mmHg,,4,WEEK 4,2007-01-11,29
ABC,VS,ABC-01-114,5,DIABP,Diastolic Blood Pressure,SITTING,80,mmHg,80,80,mmHg,,6,WEEK 6,2007-01-24,42
ABC,VS,ABC-01-114,6,DIABP,Diastolic Blood Pressure,SITTING,80,mmHg,80,80,mmHg,,8,WEEK 8,2007-02-09,58
ABC,VS,ABC-01-114,7,DIABP,Diastolic Blood Pressure,SITTING,84,mmHg,84,84,mmHg,,12,WEEK 12,2007-03-05,82
ABC,VS,ABC-01-114,8,DIABP,Diastolic Blood Pressure,SITTING,90,mmHg,90,90,mmHg,,16,WEEK 16,2007-03-29,106
ABC,VS,ABC-01-114,9,HEIGHT,Height,,170,cm,170,170,cm,Y,0,SCREENING,2006-12-01,-13
ABC,VS,ABC-01-114,10,PULSE,Pulse Rate,,64,BEATS/MIN,64,64,BEATS/MIN,,0,SCREENING,2006-12-01,-13
ABC,VS,ABC-01-114,11,PULSE,Pulse Rate,,68,BEATS/MIN,68,68,BEATS/MIN,Y,1,DAY 1,2006-12-14,1
ABC,VS,ABC-01-114,12,PULSE,Pulse Rate,,60,BEATS/MIN,60,60,BEATS/MIN,,2,WEEK 2,2006-12-28,15
ABC,VS,ABC-01-114,13,PULSE,Pulse Rate,,62,BEATS/MIN,62,62,BEATS/MIN,,4,WEEK 4,2007-01-11,29
ABC,VS,ABC-01-114,14,PULSE,Pulse Rate,,82,BEATS/MIN,82,82,BEATS/MIN,,6,WEEK 6,2007-01-24,42
ABC,VS,ABC-01-114,15,PULSE,Pulse Rate,,72,BEATS/MIN,72,72,BEATS/MIN,,8,WEEK 8,2007-02-09,58
ABC,VS,ABC-01-114,16,PULSE,Pulse Rate,,60,BEATS/MIN,60,60,BEATS/MIN,,12,WEEK 12,2007-03-05,82
ABC,VS,ABC-01-114,17,PULSE,Pulse Rate,,74,BEATS/MIN,74,74,BEATS/MIN,,16,WEEK 16,2007-03-29,106
ABC,VS,ABC-01-114,18,RESP,Respiratory Rate,,20,BREATHS/MIN,20,20,BREATHS/MIN,,0,SCREENING,2006-12-01,-13
ABC,VS,ABC-01-114,19,RESP,Respiratory Rate,,20,BREATHS/MIN,20,20,BREATHS/MIN,Y,1,DAY 1,2006-12-14,1
ABC,VS,ABC-01-114,20,RESP,Respiratory Rate,,18,BREATHS/MIN,18,18,BREATHS/MIN,,2,WEEK 2,2006-12-28,15
ABC,VS,ABC-01-114,21,RESP,Respiratory Rate,,18,BREATHS/MIN,18,18,BREATHS/MIN,,4,WEEK 4,2007-01-11,29
ABC,VS,ABC-01-114,22,RESP,Respiratory Rate,,16,BREATHS/MIN,16,16,BREATHS/MIN,,6,WEEK 6,2007-01-24,42
ABC,VS,ABC-01-114,23,RESP,Respiratory Rate,,16,BREATHS/MIN,16,16,BREATHS/MIN,,8,WEEK 8,2007-02-09,58
ABC,VS,ABC-01-114,24,RESP,Respiratory Rate,,20,BREATHS/MIN,20,20,BREATHS/MIN,,12,WEEK 12,2007-03-05,82
ABC,VS,ABC-01-114,25,RESP,Respiratory Rate,,16,BREATHS/MIN,16,16,BREATHS/MIN,,16,WEEK 16,2007-03-29,106
ABC,VS,ABC-01-114,26,SYSBP,Systolic Blood Pressure,SITTING,160,mmHg,160,160,mmHg,,0,SCREENING,2006-12-01,-13
ABC,VS,ABC-01-114,27,SYSBP,Systolic Blood Pressure,SITTING,158,mmHg,158,158,mmHg,Y,1,DAY 1,2006-12-14,1
ABC,VS,ABC-01-114,28,SYSBP,Systolic Blood Pressure,SITTING,132,mmHg,132,132,mmHg,,2,WEEK 2,2006-12-28,15
ABC,VS,ABC-01-114,29,SYSBP,Systolic Blood Pressure,SITTING,122,mmHg,122,122,mmHg,,4,WEEK 4,2007-01-11,29
ABC,VS,ABC-01-114,30,SYSBP,Systolic Blood Pressure,SITTING,120,mmHg,120,120,mmHg,,6,WEEK 6,2007-01-24,42
ABC,VS,ABC-01-114,31,SYSBP,Systolic Blood Pressure,SITTING,140,mmHg,140,140,mmHg,,8,WEEK 8,2007-02-09,58
ABC,VS,ABC-01-114,32,SYSBP,Systolic Blood Pressure,SITTING,166,mmHg,166,166,mmHg,,12,WEEK 12,2007-03-05,82
ABC,VS,ABC-01-114,33,SYSBP,Systolic Blood Pressure,SITTING,160,mmHg,160,160,mmHg,,16,WEEK 16,2007-03-29,106
ABC,VS,ABC-01-114,34,TEMP,Temperature,,36.9,C,36.9,36.9,C,,0,SCREENING,2006-12-01,-13
ABC,VS,ABC-01-114,35,TEMP,Temperature,,36.6,C,36.6,36.6,C,Y,1,DAY 1,2006-12-14,1
ABC,VS,ABC-01-114,36,TEMP,Temperature,,36.4,C,36.4,36.4,C,,2,WEEK 2,2006-12-28,15
ABC,VS,ABC-01-114,37,TEMP,Temperature,,36.7,C,36.7,36.7,C,,4,WEEK 4,2007-01-11,29
ABC,VS,ABC-01-114,38,TEMP,Temperature,,36.6,C,36.6,36.6,C,,6,WEEK 6,2007-01-24,42
ABC,VS,ABC-01-114,39,TEMP,Temperature,,36.9,C,36.9,36.9,C,,8,WEEK 8,2007-02-09,58
ABC,VS,ABC-01-114,40,TEMP,Temperature,,37,C,37,37,C,,12,WEEK 12,2007-03-05,82
ABC,VS,ABC-01-114,41,TEMP,Temperature,,36,C,36,36,C,,16,WEEK 16,2007-03-29,106
ABC,VS,ABC-01-114,42,WEIGHT,Weight,,91.3,kg,91.3,91.3,kg,Y,0,SCREENING,2006-12-01,-13
ABC,VS,ABC-02-033,1,DIABP,Diastolic Blood Pressure,SITTING,78,mmHg,78,78,mmHg,,0,SCREENING,2006-10-16,-9
ABC,VS,ABC-02-033,2,DIABP,Diastolic Blood Pressure,SITTING,88,mmHg,88,88,mmHg,Y,1,DAY 1,2006-10-25,1
ABC,VS,ABC-02-033,3,DIABP,Diastolic Blood Pressure,SITTING,70,mmHg,70,70,mmHg,,2,WEEK 2,2006-11-07,14
ABC,VS,ABC-02-033,4,DIABP,Diastolic Blood Pressure,SITTING,82,mmHg,82,82,mmHg,,4,WEEK 4,2006-11-21,28
ABC,VS,ABC-02-033,5,DIABP,Diastolic Blood Pressure,SITTING,90,mmHg,90,90,mmHg,,6,WEEK 6,2006-12-06,43
ABC,VS,ABC-02-033,6,DIABP,Diastolic Blood Pressure,SITTING,82,mmHg,82,82,mmHg,,8,WEEK 8,2006-12-19,56
ABC,VS,ABC-02-033,7,DIABP,Diastolic Blood Pressure,SITTING,84,mmHg,84,84,mmHg,,12,WEEK 12,2007-01-17,85
ABC,VS,ABC-02-033,8,DIABP,Diastolic Blood Pressure,SITTING,86,mmHg,86,86,mmHg,,16,WEEK 16,2007-02-13,112
ABC,VS,ABC-02-033,9,HEIGHT,Height,,165,cm,165,165,cm,Y,0,SCREENING,2006-10-16,-9
ABC,VS,ABC-02-033,10,PULSE,Pulse Rate,,72,BEATS/MIN,72,72,BEATS/MIN,,0,SCREENING,2006-10-16,-9
ABC,VS,ABC-02-033,11,PULSE,Pulse Rate,,72,BEATS/MIN,72,72,BEATS/MIN,Y,1,DAY 1,2006-10-25,1
ABC,VS,ABC-02-033,12,PULSE,Pulse Rate,,72,BEATS/MIN,72,72,BEATS/MIN,,2,WEEK 2,2006-11-07,14
ABC,VS,ABC-02-033,13,PULSE,Pulse Rate,,84,BEATS/MIN,84,84,BEATS/MIN,,4,WEEK 4,2006-11-21,28
ABC,VS,ABC-02-033,14,PULSE,Pulse Rate,,84,BEATS/MIN,84,84,BEATS/MIN,,6,WEEK 6,2006-12-06,43
ABC,VS,ABC-02-033,15,PULSE,Pulse Rate,,78,BEATS/MIN,78,78,BEATS/MIN,,8,WEEK 8,2006-12-19,56
ABC,VS,ABC-02-033,16,PULSE,Pulse Rate,,78,BEATS/MIN,78,78,BEATS/MIN,,12,WEEK 12,2007-01-17,85
ABC,VS,ABC-02-033,17,PULSE,Pulse Rate,,78,BEATS/MIN,78,78,BEATS/MIN,,16,WEEK 16,2007-02-13,112
ABC,VS,ABC-02-033,18,RESP,Respiratory Rate,,12,BREATHS/MIN,12,12,BREATHS/MIN,,0,SCREENING,2006-10-16,-9
ABC,VS,ABC-02-033,19,RESP,Respiratory Rate,,8,BREATHS/MIN,8,8,BREATHS/MIN,Y,1,DAY 1,2006-10-25,1
ABC,VS,ABC-02-033,20,RESP,Respiratory Rate,,8,BREATHS/MIN,8,8,BREATHS/MIN,,2,WEEK 2,2006-11-07,14
ABC,VS,ABC-02-033,21,RESP,Respiratory Rate,,8,BREATHS/MIN,8,8,BREATHS/MIN,,4,WEEK 4,2006-11-21,28
ABC,VS,ABC-02-033,22,RESP,Respiratory Rate,,18,BREATHS/MIN,18,18,BREATHS/MIN,,6,WEEK 6,2006-12-06,43
ABC,VS,ABC-02-033,23,RESP,Respiratory Rate,,8,BREATHS/MIN,8,8,BREATHS/MIN,,8,WEEK 8,2006-12-19,56
ABC,VS,ABC-02-033,24,RESP,Respiratory Rate,,8,BREATHS/MIN,8,8,BREATHS/MIN,,12,WEEK 12,2007-01-17,85
ABC,VS,ABC-02-033,25,RESP,Respiratory Rate,,8,BREATHS/MIN,8,8,BREATHS/MIN,,16,WEEK 16,2007-02-13,112
ABC,VS,ABC-02-033,26,SYSBP,Systolic Blood Pressure,SITTING,114,mmHg,114,114,mmHg,,0,SCREENING,2006-10-16,-9
ABC,VS,ABC-02-033,27,SYSBP,Systolic Blood Pressure,SITTING,122,mmHg,122,122,mmHg,Y,1,DAY 1,2006-10-25,1
ABC,VS,ABC-02-033,28,SYSBP,Systolic Blood Pressure,SITTING,110,mmHg,110,110,mmHg,,2,WEEK 2,2006-11-07,14
ABC,VS,ABC-02-033,29,SYSBP,Systolic Blood Pressure,SITTING,124,mmHg,124,124,mmHg,,4,WEEK 4,2006-11-21,28
ABC,VS,ABC-02-033,30,SYSBP,Systolic Blood Pressure,SITTING,130,mmHg,130,130,mmHg,,6,WEEK 6,2006-12-06,43
ABC,VS,ABC-02-033,31,SYSBP,Systolic Blood Pressure,SITTING,124,mmHg,124,124,mmHg,,8,WEEK 8,2006-12-19,56
ABC,VS,ABC-02-033,32,SYSBP,Systolic Blood Pressure,SITTING,126,mmHg,126,126,mmHg,,12,WEEK 12,2007-01-17,85
ABC,VS,ABC-02-033,33,SYSBP,Systolic Blood Pressure,SITTING,124,mmHg,124,124,mmHg,,16,WEEK 16,2007-02-13,112
ABC,VS,ABC-02-033,34,TEMP,Temperature,,36.3,C,36.3,36.3,C,,0,SCREENING,2006-10-16,-9
ABC,VS,ABC-02-033,35,TEMP,Temperature,,36.2,C,36.2,36.2,C,Y,1,DAY 1,2006-10-25,1
ABC,VS,ABC-02-033,36,TEMP,Temperature,,36.6,C,36.6,36.6,C,,2,WEEK 2,2006-11-07,14
ABC,VS,ABC-02-033,37,TEMP,Temperature,,36.2,C,36.2,36.2,C,,4,WEEK 4,2006-11-21,28
ABC,VS,ABC-02-033,38,TEMP,Temperature,,36.2,C,36.2,36.2,C,,6,WEEK 6,2006-12-06,43
ABC,VS,ABC-02-033,39,TEMP,Temperature,,36.4,C,36.4,36.4,C,,8,WEEK 8,2006-12-19,56
ABC,VS,ABC-02-033,40,TEMP,Temperature,,36.2,C,36.2,36.2,C,,12,WEEK 12,2007-01-17,85
ABC,VS,ABC-02-033,41,TEMP,Temperature,,36.6,C,36.6,36.6,C,,16,WEEK 16,2007-02-13,112
ABC,VS,ABC-02-033,42,WEIGHT,Weight,,81.8,kg,81.8,81.8,kg,Y,0,SCREENING,2006-10-16,-9
ABC,VS,ABC-02-034,1,DIABP,Diastolic Blood Pressure,SITTING,74,mmHg,74,74,mmHg,,0,SCREENING,2006-10-16,-10
ABC,VS,ABC-02-034,2,DIABP,Diastolic Blood Pressure,SITTING,68,mmHg,68,68,mmHg,Y,1,DAY 1,2006-10-26,1
ABC,VS,ABC-02-034,3,DIABP,Diastolic Blood Pressure,SITTING,66,mmHg,66,66,mmHg,,2,WEEK 2,2006-11-08,14
ABC,VS,ABC-02-034,4,DIABP,Diastolic Blood Pressure,SITTING,68,mmHg,68,68,mmHg,,4,WEEK 4,2006-11-21,27
ABC,VS,ABC-02-034,5,DIABP,Diastolic Blood Pressure,SITTING,70,mmHg,70,70,mmHg,,6,WEEK 6,2006-12-06,42
ABC,VS,ABC-02-034,6,DIABP,Diastolic Blood Pressure,SITTING,76,mmHg,76,76,mmHg,,8,WEEK 8,2006-12-19,55
ABC,VS,ABC-02-034,7,DIABP,Diastolic Blood Pressure,SITTING,78,mmHg,78,78,mmHg,,12,WEEK 12,2007-01-18,85
ABC,VS,ABC-02-034,8,DIABP,Diastolic Blood Pressure,SITTING,68,mmHg,68,68,mmHg,,16,WEEK 16,2007-02-15,113
ABC,VS,ABC-02-034,9,HEIGHT,Height,,164.5,cm,164.5,164.5,cm,Y,0,SCREENING,2006-10-16,-10
ABC,VS,ABC-02-034,10,PULSE,Pulse Rate,,66,BEATS/MIN,66,66,BEATS/MIN,,0,SCREENING,2006-10-16,-10
ABC,VS,ABC-02-034,11,PULSE,Pulse Rate,,66,BEATS/MIN,66,66,BEATS/MIN,Y,1,DAY 1,2006-10-26,1
ABC,VS,ABC-02-034,12,PULSE,Pulse Rate,,66,BEATS/MIN,66,66,BEATS/MIN,,2,WEEK 2,2006-11-08,14
ABC,VS,ABC-02-034,13,PULSE,Pulse Rate,,66,BEATS/MIN,66,66,BEATS/MIN,,4,WEEK 4,2006-11-21,27
ABC,VS,ABC-02-034,14,PULSE,Pulse Rate,,64,BEATS/MIN,64,64,BEATS/MIN,,6,WEEK 6,2006-12-06,42
ABC,VS,ABC-02-034,15,PULSE,Pulse Rate,,66,BEATS/MIN,66,66,BEATS/MIN,,8,WEEK 8,2006-12-19,55
ABC,VS,ABC-02-034,16,PULSE,Pulse Rate,,66,BEATS/MIN,66,66,BEATS/MIN,,12,WEEK 12,2007-01-18,85
ABC,VS,ABC-02-034,17,PULSE,Pulse Rate,,66,BEATS/MIN,66,66,BEATS/MIN,,16,WEEK 16,2007-02-15,113
ABC,VS,ABC-02-034,18,RESP,Respiratory Rate,,12,BREATHS/MIN,12,12,BREATHS/MIN,,0,SCREENING,2006-10-16,-10
ABC,VS,ABC-02-034,19,RESP,Respiratory Rate,,12,BREATHS/MIN,12,12,BREATHS/MIN,Y,1,DAY 1,2006-10-26,1
ABC,VS,ABC-02-034,20,RESP,Respiratory Rate,,8,BREATHS/MIN,8,8,BREATHS/MIN,,2,WEEK 2,2006-11-08,14
ABC,VS,ABC-02-034,21,RESP,Respiratory Rate,,8,BREATHS/MIN,8,8,BREATHS/MIN,,4,WEEK 4,2006-11-21,27
ABC,VS,ABC-02-034,22,RESP,Respiratory Rate,,18,BREATHS/MIN,18,18,BREATHS/MIN,,6,WEEK 6,2006-12-06,42
ABC,VS,ABC-02-034,23,RESP,Respiratory Rate,,8,BREATHS/MIN,8,8,BREATHS/MIN,,8,WEEK 8,2006-12-19,55
ABC,VS,ABC-02-034,24,RESP,Respiratory Rate,,8,BREATHS/MIN,8,8,BREATHS/MIN,,12,WEEK 12,2007-01-18,85
ABC,VS,ABC-02-034,25,RESP,Respiratory Rate,,8,BREATHS/MIN,8,8,BREATHS/MIN,,16,WEEK 16,2007-02-15,113
ABC,VS,ABC-02-034,26,SYSBP,Systolic Blood Pressure,SITTING,130,mmHg,130,130,mmHg,,0,SCREENING,2006-10-16,-10
ABC,VS,ABC-02-034,27,SYSBP,Systolic Blood Pressure,SITTING,106,mmHg,106,106,mmHg,Y,1,DAY 1,2006-10-26,1
ABC,VS,ABC-02-034,28,SYSBP,Systolic Blood Pressure,SITTING,108,mmHg,108,108,mmHg,,2,WEEK 2,2006-11-08,14
ABC,VS,ABC-02-034,29,SYSBP,Systolic Blood Pressure,SITTING,122,mmHg,122,122,mmHg,,4,WEEK 4,2006-11-21,27
ABC,VS,ABC-02-034,30,SYSBP,Systolic Blood Pressure,SITTING,122,mmHg,122,122,mmHg,,6,WEEK 6,2006-12-06,42
ABC,VS,ABC-02-034,31,SYSBP,Systolic Blood Pressure,SITTING,118,mmHg,118,118,mmHg,,8,WEEK 8,2006-12-19,55
ABC,VS,ABC-02-034,32,SYSBP,Systolic Blood Pressure,SITTING,122,mmHg,122,122,mmHg,,12,WEEK 12,2007-01-18,85
ABC,VS,ABC-02-034,33,SYSBP,Systolic Blood Pressure,SITTING,122,mmHg,122,122,mmHg,,16,WEEK 16,2007-02-15,113
ABC,VS,ABC-02-034,34,TEMP,Temperature,,36.4,C,36.4,36.4,C,,0,SCREENING,2006-10-16,-10
ABC,VS,ABC-02-034,35,TEMP,Temperature,,36.3,C,36.3,36.3,C,Y,1,DAY 1,2006-10-26,1
ABC,VS,ABC-02-034,36,TEMP,Temperature,,36.5,C,36.5,36.5,C,,2,WEEK 2,2006-11-08,14
ABC,VS,ABC-02-034,37,TEMP,Temperature,,36.1,C,36.1,36.1,C,,4,WEEK 4,2006-11-21,27
ABC,VS,ABC-02-034,38,TEMP,Temperature,,36.6,C,36.6,36.6,C,,6,WEEK 6,2006-12-06,42
ABC,VS,ABC-02-034,39,TEMP,Temperature,,36.8,C,36.8,36.8,C,,8,WEEK 8,2006-12-19,55
ABC,VS,ABC-02-034,40,TEMP,Temperature,,36.1,C,36.1,36.1,C,,12,WEEK 12,2007-01-18,85
ABC,VS,ABC-02-034,41,TEMP,Temperature,,36.5,C,36.5,36.5,C,,16,WEEK 16,2007-02-15,113
ABC,VS,ABC-02-034,42,WEIGHT,Weight,,60.1,kg,60.1,60.1,kg,Y,0,SCREENING,2006-10-16,-10
ABC,VS,ABC-02-035,1,DIABP,Diastolic Blood Pressure,SITTING,84,mmHg,84,84,mmHg,,0,SCREENING,2006-10-16,-15
ABC,VS,ABC-02-035,2,DIABP,Diastolic Blood Pressure,SITTING,94,mmHg,94,94,mmHg,Y,1,DAY 1,2006-10-31,1
ABC,VS,ABC-02-035,3,DIABP,Diastolic Blood Pressure,SITTING,90,mmHg,90,90,mmHg,,2,WEEK 2,2006-11-15,16
ABC,VS,ABC-02-035,4,DIABP,Diastolic Blood Pressure,SITTING,92,mmHg,92,92,mmHg,,4,WEEK 4,2006-11-28,29
ABC,VS,ABC-02-035,5,DIABP,Diastolic Blood Pressure,SITTING,92,mmHg,92,92,mmHg,,6,WEEK 6,2006-12-12,43
ABC,VS,ABC-02-035,6,DIABP,Diastolic Blood Pressure,SITTING,86,mmHg,86,86,mmHg,,8,WEEK 8,2006-12-28,59
ABC,VS,ABC-02-035,7,DIABP,Diastolic Blood Pressure,SITTING,82,mmHg,82,82,mmHg,,12,WEEK 12,2007-01-23,85
ABC,VS,ABC-02-035,8,DIABP,Diastolic Blood Pressure,SITTING,90,mmHg,90,90,mmHg,,16,WEEK 16,2007-02-20,113
ABC,VS,ABC-02-035,9,HEIGHT,Height,,180.5,cm,180.5,180.5,cm,Y,0,SCREENING,2006-10-16,-15
ABC,VS,ABC-02-035,10,PULSE,Pulse Rate,,66,BEATS/MIN,66,66,BEATS/MIN,,0,SCREENING,2006-10-16,-15
ABC,VS,ABC-02-035,11,PULSE,Pulse Rate,,66,BEATS/MIN,66,66,BEATS/MIN,Y,1,DAY 1,2006-10-31,1
ABC,VS,ABC-02-035,12,PULSE,Pulse Rate,,72,BEATS/MIN,72,72,BEATS/MIN,,2,WEEK 2,2006-11-15,16
ABC,VS,ABC-02-035,13,PULSE,Pulse Rate,,66,BEATS/MIN,66,66,BEATS/MIN,,4,WEEK 4,2006-11-28,29
ABC,VS,ABC-02-035,14,PULSE,Pulse Rate,,72,BEATS/MIN,72,72,BEATS/MIN,,6,WEEK 6,2006-12-12,43
ABC,VS,ABC-02-035,15,PULSE,Pulse Rate,,66,BEATS/MIN,66,66,BEATS/MIN,,8,WEEK 8,2006-12-28,59
ABC,VS,ABC-02-035,16,PULSE,Pulse Rate,,66,BEATS/MIN,66,66,BEATS/MIN,,12,WEEK 12,2007-01-23,85
ABC,VS,ABC-02-035,17,PULSE,Pulse Rate,,66,BEATS/MIN,66,66,BEATS/MIN,,16,WEEK 16,2007-02-20,113
ABC,VS,ABC-02-035,18,RESP,Respiratory Rate,,12,BREATHS/MIN,12,12,BREATHS/MIN,,0,SCREENING,2006-10-16,-15
ABC,VS,ABC-02-035,19,RESP,Respiratory Rate,,8,BREATHS/MIN,8,8,BREATHS/MIN,Y,1,DAY 1,2006-10-31,1
ABC,VS,ABC-02-035,20,RESP,Respiratory Rate,,8,BREATHS/MIN,8,8,BREATHS/MIN,,2,WEEK 2,2006-11-15,16
ABC,VS,ABC-02-035,21,RESP,Respiratory Rate,,8,BREATHS/MIN,8,8,BREATHS/MIN,,4,WEEK 4,2006-11-28,29
ABC,VS,ABC-02-035,22,RESP,Respiratory Rate,,8,BREATHS/MIN,8,8,BREATHS/MIN,,6,WEEK 6,2006-12-12,43
ABC,VS,ABC-02-035,23,RESP,Respiratory Rate,,12,BREATHS/MIN,12,12,BREATHS/MIN,,8,WEEK 8,2006-12-28,59
ABC,VS,ABC-02-035,24,RESP,Respiratory Rate,,8,BREATHS/MIN,8,8,BREATHS/MIN,,12,WEEK 12,2007-01-23,85
ABC,VS,ABC-02-035,25,RESP,Respiratory Rate,,8,BREATHS/MIN,8,8,BREATHS/MIN,,16,WEEK 16,2007-02-20,113
ABC,VS,ABC-02-035,26,SYSBP,Systolic Blood Pressure,SITTING,136,mmHg,136,136,mmHg,,0,SCREENING,2006-10-16,-15
ABC,VS,ABC-02-035,27,SYSBP,Systolic Blood Pressure,SITTING,136,mmHg,136,136,mmHg,Y,1,DAY 1,2006-10-31,1
ABC,VS,ABC-02-035,28,SYSBP,Systolic Blood Pressure,SITTING,138,mmHg,138,138,mmHg,,2,WEEK 2,2006-11-15,16
ABC,VS,ABC-02-035,29,SYSBP,Systolic Blood Pressure,SITTING,138,mmHg,138,138,mmHg,,4,WEEK 4,2006-11-28,29
ABC,VS,ABC-02-035,30,SYSBP,Systolic Blood Pressure,SITTING,134,mmHg,134,134,mmHg,,6,WEEK 6,2006-12-12,43
ABC,VS,ABC-02-035,31,SYSBP,Systolic Blood Pressure,SITTING,130,mmHg,130,130,mmHg,,8,WEEK 8,2006-12-28,59
ABC,VS,ABC-02-035,32,SYSBP,Systolic Blood Pressure,SITTING,132,mmHg,132,132,mmHg,,12,WEEK 12,2007-01-23,85
ABC,VS,ABC-02-035,33,SYSBP,Systolic Blood Pressure,SITTING,130,mmHg,130,130,mmHg,,16,WEEK 16,2007-02-20,113
ABC,VS,ABC-02-035,34,TEMP,Temperature,,35.6,C,35.6,35.6,C,,0,SCREENING,2006-10-16,-15
ABC,VS,ABC-02-035,35,TEMP,Temperature,,36.1,C,36.1,36.1,C,Y,1,DAY 1,2006-10-31,1
ABC,VS,ABC-02-035,36,TEMP,Temperature,,36,C,36,36,C,,2,WEEK 2,2006-11-15,16
ABC,VS,ABC-02-035,37,TEMP,Temperature,,36.1,C,36.1,36.1,C,,4,WEEK 4,2006-11-28,29
ABC,VS,ABC-02-035,38,TEMP,Temperature,,36.4,C,36.4,36.4,C,,6,WEEK 6,2006-12-12,43
ABC,VS,ABC-02-035,39,TEMP,Temperature,,36.1,C,36.1,36.1,C,,8,WEEK 8,2006-12-28,59
ABC,VS,ABC-02-035,40,TEMP,Temperature,,36.2,C,36.2,36.2,C,,12,WEEK 12,2007-01-23,85
ABC,VS,ABC-02-035,41,TEMP,Temperature,,36.3,C,36.3,36.3,C,,16,WEEK 16,2007-02-20,113
ABC,VS,ABC-02-035,42,WEIGHT,Weight,,107.7,kg,107.7,107.7,kg,Y,0,SCREENING,2006-10-16,-15
ABC,VS,ABC-02-036,1,DIABP,Diastolic Blood Pressure,SITTING,92,mmHg,92,92,mmHg,,0,SCREENING,2006-10-23,-9
ABC,VS,ABC-02-036,2,DIABP,Diastolic Blood Pressure,SITTING,84,mmHg,84,84,mmHg,Y,1,DAY 1,2006-11-01,1
ABC,VS,ABC-02-036,3,DIABP,Diastolic Blood Pressure,SITTING,84,mmHg,84,84,mmHg,,2,WEEK 2,2006-11-15,15
ABC,VS,ABC-02-036,4,DIABP,Diastolic Blood Pressure,SITTING,88,mmHg,88,88,mmHg,,4,WEEK 4,2006-11-29,29
ABC,VS,ABC-02-036,5,DIABP,Diastolic Blood Pressure,SITTING,82,mmHg,82,82,mmHg,,6,WEEK 6,2006-12-14,44
ABC,VS,ABC-02-036,6,DIABP,Diastolic Blood Pressure,SITTING,86,mmHg,86,86,mmHg,,8,WEEK 8,2006-12-28,58
ABC,VS,ABC-02-036,7,DIABP,Diastolic Blood Pressure,SITTING,86,mmHg,86,86,mmHg,,12,WEEK 12,2007-01-24,85
ABC,VS,ABC-02-036,8,DIABP,Diastolic Blood Pressure,SITTING,82,mmHg,82,82,mmHg,,16,WEEK 16,2007-02-21,113
ABC,VS,ABC-02-036,9,HEIGHT,Height,,183.5,cm,183.5,183.5,cm,Y,0,SCREENING,2006-10-23,-9
ABC,VS,ABC-02-036,10,PULSE,Pulse Rate,,66,BEATS/MIN,66,66,BEATS/MIN,,0,SCREENING,2006-10-23,-9
ABC,VS,ABC-02-036,11,PULSE,Pulse Rate,,72,BEATS/MIN,72,72,BEATS/MIN,Y,1,DAY 1,2006-11-01,1
ABC,VS,ABC-02-036,12,PULSE,Pulse Rate,,72,BEATS/MIN,72,72,BEATS/MIN,,2,WEEK 2,2006-11-15,15
ABC,VS,ABC-02-036,13,PULSE,Pulse Rate,,72,BEATS/MIN,72,72,BEATS/MIN,,4,WEEK 4,2006-11-29,29
ABC,VS,ABC-02-036,14,PULSE,Pulse Rate,,66,BEATS/MIN,66,66,BEATS/MIN,,6,WEEK 6,2006-12-14,44
ABC,VS,ABC-02-036,15,PULSE,Pulse Rate,,72,BEATS/MIN,72,72,BEATS/MIN,,8,WEEK 8,2006-12-28,58
ABC,VS,ABC-02-036,16,PULSE,Pulse Rate,,72,BEATS/MIN,72,72,BEATS/MIN,,12,WEEK 12,2007-01-24,85
ABC,VS,ABC-02-036,17,PULSE,Pulse Rate,,72,BEATS/MIN,72,72,BEATS/MIN,,16,WEEK 16,2007-02-21,113
ABC,VS,ABC-02-036,18,RESP,Respiratory Rate,,12,BREATHS/MIN,12,12,BREATHS/MIN,,0,SCREENING,2006-10-23,-9
ABC,VS,ABC-02-036,19,RESP,Respiratory Rate,,12,BREATHS/MIN,12,12,BREATHS/MIN,Y,1,DAY 1,2006-11-01,1
ABC,VS,ABC-02-036,20,RESP,Respiratory Rate,,8,BREATHS/MIN,8,8,BREATHS/MIN,,2,WEEK 2,2006-11-15,15
ABC,VS,ABC-02-036,21,RESP,Respiratory Rate,,8,BREATHS/MIN,8,8,BREATHS/MIN,,4,WEEK 4,2006-11-29,29
ABC,VS,ABC-02-036,22,RESP,Respiratory Rate,,12,BREATHS/MIN,12,12,BREATHS/MIN,,6,WEEK 6,2006-12-14,44
ABC,VS,ABC-02-036,23,RESP,Respiratory Rate,,12,BREATHS/MIN,12,12,BREATHS/MIN,,8,WEEK 8,2006-12-28,58
ABC,VS,ABC-02-036,24,RESP,Respiratory Rate,,8,BREATHS/MIN,8,8,BREATHS/MIN,,12,WEEK 12,2007-01-24,85
ABC,VS,ABC-02-036,25,RESP,Respiratory Rate,,8,BREATHS/MIN,8,8,BREATHS/MIN,,16,WEEK 16,2007-02-21,113
ABC,VS,ABC-02-036,26,SYSBP,Systolic Blood Pressure,SITTING,128,mmHg,128,128,mmHg,,0,SCREENING,2006-10-23,-9
ABC,VS,ABC-02-036,27,SYSBP,Systolic Blood Pressure,SITTING,132,mmHg,132,132,mmHg,Y,1,DAY 1,2006-11-01,1
ABC,VS,ABC-02-036,28,SYSBP,Systolic Blood Pressure,SITTING,122,mmHg,122,122,mmHg,,2,WEEK 2,2006-11-15,15
ABC,VS,ABC-02-036,29,SYSBP,Systolic Blood Pressure,SITTING,124,mmHg,124,124,mmHg,,4,WEEK 4,2006-11-29,29
ABC,VS,ABC-02-036,30,SYSBP,Systolic Blood Pressure,SITTING,114,mmHg,114,114,mmHg,,6,WEEK 6,2006-12-14,44
ABC,VS,ABC-02-036,31,SYSBP,Systolic Blood Pressure,SITTING,128,mmHg,128,128,mmHg,,8,WEEK 8,2006-12-28,58
ABC,VS,ABC-02-036,32,SYSBP,Systolic Blood Pressure,SITTING,124,mmHg,124,124,mmHg,,12,WEEK 12,2007-01-24,85
ABC,VS,ABC-02-036,33,SYSBP,Systolic Blood Pressure,SITTING,124,mmHg,124,124,mmHg,,16,WEEK 16,2007-02-21,113
ABC,VS,ABC-02-036,34,TEMP,Temperature,,36.9,C,36.9,36.9,C,,0,SCREENING,2006-10-23,-9
ABC,VS,ABC-02-036,35,TEMP,Temperature,,36.5,C,36.5,36.5,C,Y,1,DAY 1,2006-11-01,1
ABC,VS,ABC-02-036,36,TEMP,Temperature,,36.4,C,36.4,36.4,C,,2,WEEK 2,2006-11-15,15
ABC,VS,ABC-02-036,37,TEMP,Temperature,,36.3,C,36.3,36.3,C,,4,WEEK 4,2006-11-29,29
ABC,VS,ABC-02-036,38,TEMP,Temperature,,36.1,C,36.1,36.1,C,,6,WEEK 6,2006-12-14,44
ABC,VS,ABC-02-036,39,TEMP,Temperature,,36.1,C,36.1,36.1,C,,8,WEEK 8,2006-12-28,58
ABC,VS,ABC-02-036,40,TEMP,Temperature,,36.1,C,36.1,36.1,C,,12,WEEK 12,2007-01-24,85
ABC,VS,ABC-02-036,41,TEMP,Temperature,,36.1,C,36.1,36.1,C,,16,WEEK 16,2007-02-21,113
ABC,VS,ABC-02-036,42,WEIGHT,Weight,,108.8,kg,108.8,108.8,kg,Y,0,SCREENING,2006-10-23,-9
ABC,VS,ABC-02-037,1,DIABP,Diastolic Blood Pressure,SITTING,88,mmHg,88,88,mmHg,,0,SCREENING,2006-10-24,-8
ABC,VS,ABC-02-037,2,DIABP,Diastolic Blood Pressure,SITTING,88,mmHg,88,88,mmHg,Y,1,DAY 1,2006-11-01,1
ABC,VS,ABC-02-037,3,DIABP,Diastolic Blood Pressure,SITTING,86,mmHg,86,86,mmHg,,2,WEEK 2,2006-11-14,14
ABC,VS,ABC-02-037,4,DIABP,Diastolic Blood Pressure,SITTING,86,mmHg,86,86,mmHg,,4,WEEK 4,2006-11-30,30
ABC,VS,ABC-02-037,5,DIABP,Diastolic Blood Pressure,SITTING,86,mmHg,86,86,mmHg,,6,WEEK 6,2006-12-14,44
ABC,VS,ABC-02-037,6,DIABP,Diastolic Blood Pressure,SITTING,78,mmHg,78,78,mmHg,,8,WEEK 8,2006-12-28,58
ABC,VS,ABC-02-037,7,DIABP,Diastolic Blood Pressure,SITTING,70,mmHg,70,70,mmHg,,12,WEEK 12,2007-01-19,80
ABC,VS,ABC-02-037,8,DIABP,Diastolic Blood Pressure,SITTING,88,mmHg,88,88,mmHg,,16,WEEK 16,2007-02-15,107
ABC,VS,ABC-02-037,9,HEIGHT,Height,,195.5,cm,195.5,195.5,cm,Y,0,SCREENING,2006-10-24,-8
ABC,VS,ABC-02-037,10,PULSE,Pulse Rate,,72,BEATS/MIN,72,72,BEATS/MIN,,0,SCREENING,2006-10-24,-8
ABC,VS,ABC-02-037,11,PULSE,Pulse Rate,,78,BEATS/MIN,78,78,BEATS/MIN,Y,1,DAY 1,2006-11-01,1
ABC,VS,ABC-02-037,12,PULSE,Pulse Rate,,66,BEATS/MIN,66,66,BEATS/MIN,,2,WEEK 2,2006-11-14,14
ABC,VS,ABC-02-037,13,PULSE,Pulse Rate,,72,BEATS/MIN,72,72,BEATS/MIN,,4,WEEK 4,2006-11-30,30
ABC,VS,ABC-02-037,14,PULSE,Pulse Rate,,72,BEATS/MIN,72,72,BEATS/MIN,,6,WEEK 6,2006-12-14,44
ABC,VS,ABC-02-037,15,PULSE,Pulse Rate,,78,BEATS/MIN,78,78,BEATS/MIN,,8,WEEK 8,2006-12-28,58
ABC,VS,ABC-02-037,16,PULSE,Pulse Rate,,80,BEATS/MIN,80,80,BEATS/MIN,,12,WEEK 12,2007-01-19,80
ABC,VS,ABC-02-037,17,PULSE,Pulse Rate,,84,BEATS/MIN,84,84,BEATS/MIN,,16,WEEK 16,2007-02-15,107
ABC,VS,ABC-02-037,18,RESP,Respiratory Rate,,8,BREATHS/MIN,8,8,BREATHS/MIN,,0,SCREENING,2006-10-24,-8
ABC,VS,ABC-02-037,19,RESP,Respiratory Rate,,12,BREATHS/MIN,12,12,BREATHS/MIN,Y,1,DAY 1,2006-11-01,1
ABC,VS,ABC-02-037,20,RESP,Respiratory Rate,,8,BREATHS/MIN,8,8,BREATHS/MIN,,2,WEEK 2,2006-11-14,14
ABC,VS,ABC-02-037,21,RESP,Respiratory Rate,,8,BREATHS/MIN,8,8,BREATHS/MIN,,4,WEEK 4,2006-11-30,30
ABC,VS,ABC-02-037,22,RESP,Respiratory Rate,,8,BREATHS/MIN,8,8,BREATHS/MIN,,6,WEEK 6,2006-12-14,44
ABC,VS,ABC-02-037,23,RESP,Respiratory Rate,,12,BREATHS/MIN,12,12,BREATHS/MIN,,8,WEEK 8,2006-12-28,58
ABC,VS,ABC-02-037,24,RESP,Respiratory Rate,,12,BREATHS/MIN,12,12,BREATHS/MIN,,12,WEEK 12,2007-01-19,80
ABC,VS,ABC-02-037,25,RESP,Respiratory Rate,,8,BREATHS/MIN,8,8,BREATHS/MIN,,16,WEEK 16,2007-02-15,107
ABC,VS,ABC-02-037,26,SYSBP,Systolic Blood Pressure,SITTING,128,mmHg,128,128,mmHg,,0,SCREENING,2006-10-24,-8
ABC,VS,ABC-02-037,27,SYSBP,Systolic Blood Pressure,SITTING,122,mmHg,122,122,mmHg,Y,1,DAY 1,2006-11-01,1
ABC,VS,ABC-02-037,28,SYSBP,Systolic Blood Pressure,SITTING,124,mmHg,124,124,mmHg,,2,WEEK 2,2006-11-14,14
ABC,VS,ABC-02-037,29,SYSBP,Systolic Blood Pressure,SITTING,114,mmHg,114,114,mmHg,,4,WEEK 4,2006-11-30,30
ABC,VS,ABC-02-037,30,SYSBP,Systolic Blood Pressure,SITTING,114,mmHg,114,114,mmHg,,6,WEEK 6,2006-12-14,44
ABC,VS,ABC-02-037,31,SYSBP,Systolic Blood Pressure,SITTING,126,mmHg,126,126,mmHg,,8,WEEK 8,2006-12-28,58
ABC,VS,ABC-02-037,32,SYSBP,Systolic Blood Pressure,SITTING,120,mmHg,120,120,mmHg,,12,WEEK 12,2007-01-19,80
ABC,VS,ABC-02-037,33,SYSBP,Systolic Blood Pressure,SITTING,122,mmHg,122,122,mmHg,,16,WEEK 16,2007-02-15,107
ABC,VS,ABC-02-037,34,TEMP,Temperature,,36.1,C,36.1,36.1,C,,0,SCREENING,2006-10-24,-8
ABC,VS,ABC-02-037,35,TEMP,Temperature,,36.7,C,36.7,36.7,C,Y,1,DAY 1,2006-11-01,1
ABC,VS,ABC-02-037,36,TEMP,Temperature,,36.5,C,36.5,36.5,C,,2,WEEK 2,2006-11-14,14
ABC,VS,ABC-02-037,37,TEMP,Temperature,,36.1,C,36.1,36.1,C,,4,WEEK 4,2006-11-30,30
ABC,VS,ABC-02-037,38,TEMP,Temperature,,36.1,C,36.1,36.1,C,,6,WEEK 6,2006-12-14,44
ABC,VS,ABC-02-037,39,TEMP,Temperature,,36.3,C,36.3,36.3,C,,8,WEEK 8,2006-12-28,58
ABC,VS,ABC-02-037,40,TEMP,Temperature,,36.4,C,36.4,36.4,C,,12,WEEK 12,2007-01-19,80
ABC,VS,ABC-02-037,41,TEMP,Temperature,,36.2,C,36.2,36.2,C,,16,WEEK 16,2007-02-15,107
ABC,VS,ABC-02-037,42,WEIGHT,Weight,,126.6,kg,126.6,126.6,kg,Y,0,SCREENING,2006-10-24,-8
ABC,VS,ABC-02-038,1,DIABP,Diastolic Blood Pressure,SITTING,88,mmHg,88,88,mmHg,,0,SCREENING,2006-10-30,-14
ABC,VS,ABC-02-038,2,DIABP,Diastolic Blood Pressure,SITTING,92,mmHg,92,92,mmHg,Y,1,DAY 1,2006-11-13,1
ABC,VS,ABC-02-038,3,DIABP,Diastolic Blood Pressure,SITTING,92,mmHg,92,92,mmHg,,2,WEEK 2,2006-11-27,15
ABC,VS,ABC-02-038,4,DIABP,Diastolic Blood Pressure,SITTING,98,mmHg,98,98,mmHg,,4,WEEK 4,2006-12-11,29
ABC,VS,ABC-02-038,5,DIABP,Diastolic Blood Pressure,SITTING,94,mmHg,94,94,mmHg,,6,WEEK 6,2006-12-27,45
ABC,VS,ABC-02-038,6,DIABP,Diastolic Blood Pressure,SITTING,96,mmHg,96,96,mmHg,,8,WEEK 8,2007-01-08,57
ABC,VS,ABC-02-038,7,DIABP,Diastolic Blood Pressure,SITTING,84,mmHg,84,84,mmHg,,12,WEEK 12,2007-02-07,87
ABC,VS,ABC-02-038,8,DIABP,Diastolic Blood Pressure,SITTING,82,mmHg,82,82,mmHg,,16,WEEK 16,2007-03-03,111
ABC,VS,ABC-02-038,9,HEIGHT,Height,,174,cm,174,174,cm,Y,0,SCREENING,2006-10-30,-14
ABC,VS,ABC-02-038,10,PULSE,Pulse Rate,,66,BEATS/MIN,66,66,BEATS/MIN,,0,SCREENING,2006-10-30,-14
ABC,VS,ABC-02-038,11,PULSE,Pulse Rate,,72,BEATS/MIN,72,72,BEATS/MIN,Y,1,DAY 1,2006-11-13,1
ABC,VS,ABC-02-038,12,PULSE,Pulse Rate,,72,BEATS/MIN,72,72,BEATS/MIN,,2,WEEK 2,2006-11-27,15
ABC,VS,ABC-02-038,13,PULSE,Pulse Rate,,78,BEATS/MIN,78,78,BEATS/MIN,,4,WEEK 4,2006-12-11,29
ABC,VS,ABC-02-038,14,PULSE,Pulse Rate,,74,BEATS/MIN,74,74,BEATS/MIN,,6,WEEK 6,2006-12-27,45
ABC,VS,ABC-02-038,15,PULSE,Pulse Rate,,84,BEATS/MIN,84,84,BEATS/MIN,,8,WEEK 8,2007-01-08,57
ABC,VS,ABC-02-038,16,PULSE,Pulse Rate,,72,BEATS/MIN,72,72,BEATS/MIN,,12,WEEK 12,2007-02-07,87
ABC,VS,ABC-02-038,17,PULSE,Pulse Rate,,66,BEATS/MIN,66,66,BEATS/MIN,,16,WEEK 16,2007-03-03,111
ABC,VS,ABC-02-038,18,RESP,Respiratory Rate,,8,BREATHS/MIN,8,8,BREATHS/MIN,,0,SCREENING,2006-10-30,-14
ABC,VS,ABC-02-038,19,RESP,Respiratory Rate,,12,BREATHS/MIN,12,12,BREATHS/MIN,Y,1,DAY 1,2006-11-13,1
ABC,VS,ABC-02-038,20,RESP,Respiratory Rate,,12,BREATHS/MIN,12,12,BREATHS/MIN,,2,WEEK 2,2006-11-27,15
ABC,VS,ABC-02-038,21,RESP,Respiratory Rate,,12,BREATHS/MIN,12,12,BREATHS/MIN,,4,WEEK 4,2006-12-11,29
ABC,VS,ABC-02-038,22,RESP,Respiratory Rate,,16,BREATHS/MIN,16,16,BREATHS/MIN,,6,WEEK 6,2006-12-27,45
ABC,VS,ABC-02-038,23,RESP,Respiratory Rate,,12,BREATHS/MIN,12,12,BREATHS/MIN,,8,WEEK 8,2007-01-08,57
ABC,VS,ABC-02-038,24,RESP,Respiratory Rate,,12,BREATHS/MIN,12,12,BREATHS/MIN,,12,WEEK 12,2007-02-07,87
ABC,VS,ABC-02-038,25,RESP,Respiratory Rate,,8,BREATHS/MIN,8,8,BREATHS/MIN,,16,WEEK 16,2007-03-03,111
ABC,VS,ABC-02-038,26,SYSBP,Systolic Blood Pressure,SITTING,138,mmHg,138,138,mmHg,,0,SCREENING,2006-10-30,-14
ABC,VS,ABC-02-038,27,SYSBP,Systolic Blood Pressure,SITTING,140,mmHg,140,140,mmHg,Y,1,DAY 1,2006-11-13,1
ABC,VS,ABC-02-038,28,SYSBP,Systolic Blood Pressure,SITTING,140,mmHg,140,140,mmHg,,2,WEEK 2,2006-11-27,15
ABC,VS,ABC-02-038,29,SYSBP,Systolic Blood Pressure,SITTING,150,mmHg,150,150,mmHg,,4,WEEK 4,2006-12-11,29
ABC,VS,ABC-02-038,30,SYSBP,Systolic Blood Pressure,SITTING,160,mmHg,160,160,mmHg,,6,WEEK 6,2006-12-27,45
ABC,VS,ABC-02-038,31,SYSBP,Systolic Blood Pressure,SITTING,160,mmHg,160,160,mmHg,,8,WEEK 8,2007-01-08,57
ABC,VS,ABC-02-038,32,SYSBP,Systolic Blood Pressure,SITTING,138,mmHg,138,138,mmHg,,12,WEEK 12,2007-02-07,87
ABC,VS,ABC-02-038,33,SYSBP,Systolic Blood Pressure,SITTING,138,mmHg,138,138,mmHg,,16,WEEK 16,2007-03-03,111
ABC,VS,ABC-02-038,34,TEMP,Temperature,,36.4,C,36.4,36.4,C,,0,SCREENING,2006-10-30,-14
ABC,VS,ABC-02-038,35,TEMP,Temperature,,35.9,C,35.9,35.9,C,Y,1,DAY 1,2006-11-13,1
ABC,VS,ABC-02-038,36,TEMP,Temperature,,36.1,C,36.1,36.1,C,,2,WEEK 2,2006-11-27,15
ABC,VS,ABC-02-038,37,TEMP,Temperature,,36.3,C,36.3,36.3,C,,4,WEEK 4,2006-12-11,29
ABC,VS,ABC-02-038,38,TEMP,Temperature,,36.3,C,36.3,36.3,C,,6,WEEK 6,2006-12-27,45
ABC,VS,ABC-02-038,39,TEMP,Temperature,,36.8,C,36.8,36.8,C,,8,WEEK 8,2007-01-08,57
ABC,VS,ABC-02-038,40,TEMP,Temperature,,36.7,C,36.7,36.7,C,,12,WEEK 12,2007-02-07,87
ABC,VS,ABC-02-038,41,TEMP,Temperature,,36.2,C,36.2,36.2,C,,16,WEEK 16,2007-03-03,111
ABC,VS,ABC-02-038,42,WEIGHT,Weight,,90,kg,90,90,kg,Y,0,SCREENING,2006-10-30,-14
ABC,VS,ABC-02-039,1,DIABP,Diastolic Blood Pressure,SITTING,82,mmHg,82,82,mmHg,,0,SCREENING,2006-11-06,-9
ABC,VS,ABC-02-039,2,DIABP,Diastolic Blood Pressure,SITTING,62,mmHg,62,62,mmHg,Y,1,DAY 1,2006-11-15,1
ABC,VS,ABC-02-039,3,DIABP,Diastolic Blood Pressure,SITTING,60,mmHg,60,60,mmHg,,2,WEEK 2,2006-11-30,16
ABC,VS,ABC-02-039,4,DIABP,Diastolic Blood Pressure,SITTING,78,mmHg,78,78,mmHg,,4,WEEK 4,2006-12-12,28
ABC,VS,ABC-02-039,5,DIABP,Diastolic Blood Pressure,SITTING,86,mmHg,86,86,mmHg,,6,WEEK 6,2006-12-28,44
ABC,VS,ABC-02-039,6,DIABP,Diastolic Blood Pressure,SITTING,78,mmHg,78,78,mmHg,,8,WEEK 8,2007-01-10,57
ABC,VS,ABC-02-039,7,DIABP,Diastolic Blood Pressure,SITTING,102,mmHg,102,102,mmHg,,12,WEEK 12,2007-02-07,85
ABC,VS,ABC-02-039,8,DIABP,Diastolic Blood Pressure,SITTING,84,mmHg,84,84,mmHg,,16,WEEK 16,2007-03-06,112
ABC,VS,ABC-02-039,9,HEIGHT,Height,,170.5,cm,170.5,170.5,cm,Y,0,SCREENING,2006-11-06,-9
ABC,VS,ABC-02-039,10,PULSE,Pulse Rate,,72,BEATS/MIN,72,72,BEATS/MIN,,0,SCREENING,2006-11-06,-9
ABC,VS,ABC-02-039,11,PULSE,Pulse Rate,,66,BEATS/MIN,66,66,BEATS/MIN,Y,1,DAY 1,2006-11-15,1
ABC,VS,ABC-02-039,12,PULSE,Pulse Rate,,68,BEATS/MIN,68,68,BEATS/MIN,,2,WEEK 2,2006-11-30,16
ABC,VS,ABC-02-039,13,PULSE,Pulse Rate,,78,BEATS/MIN,78,78,BEATS/MIN,,4,WEEK 4,2006-12-12,28
ABC,VS,ABC-02-039,14,PULSE,Pulse Rate,,84,BEATS/MIN,84,84,BEATS/MIN,,6,WEEK 6,2006-12-28,44
ABC,VS,ABC-02-039,15,PULSE,Pulse Rate,,72,BEATS/MIN,72,72,BEATS/MIN,,8,WEEK 8,2007-01-10,57
ABC,VS,ABC-02-039,16,PULSE,Pulse Rate,,72,BEATS/MIN,72,72,BEATS/MIN,,12,WEEK 12,2007-02-07,85
ABC,VS,ABC-02-039,17,PULSE,Pulse Rate,,78,BEATS/MIN,78,78,BEATS/MIN,,16,WEEK 16,2007-03-06,112
ABC,VS,ABC-02-039,18,RESP,Respiratory Rate,,12,BREATHS/MIN,12,12,BREATHS/MIN,,0,SCREENING,2006-11-06,-9
ABC,VS,ABC-02-039,19,RESP,Respiratory Rate,,12,BREATHS/MIN,12,12,BREATHS/MIN,Y,1,DAY 1,2006-11-15,1
ABC,VS,ABC-02-039,20,RESP,Respiratory Rate,,20,BREATHS/MIN,20,20,BREATHS/MIN,,2,WEEK 2,2006-11-30,16
ABC,VS,ABC-02-039,21,RESP,Respiratory Rate,,12,BREATHS/MIN,12,12,BREATHS/MIN,,4,WEEK 4,2006-12-12,28
ABC,VS,ABC-02-039,22,RESP,Respiratory Rate,,16,BREATHS/MIN,16,16,BREATHS/MIN,,6,WEEK 6,2006-12-28,44
ABC,VS,ABC-02-039,23,RESP,Respiratory Rate,,12,BREATHS/MIN,12,12,BREATHS/MIN,,8,WEEK 8,2007-01-10,57
ABC,VS,ABC-02-039,24,RESP,Respiratory Rate,,8,BREATHS/MIN,8,8,BREATHS/MIN,,12,WEEK 12,2007-02-07,85
ABC,VS,ABC-02-039,25,RESP,Respiratory Rate,,12,BREATHS/MIN,12,12,BREATHS/MIN,,16,WEEK 16,2007-03-06,112
ABC,VS,ABC-02-039,26,SYSBP,Systolic Blood Pressure,SITTING,124,mmHg,124,124,mmHg,,0,SCREENING,2006-11-06,-9
ABC,VS,ABC-02-039,27,SYSBP,Systolic Blood Pressure,SITTING,112,mmHg,112,112,mmHg,Y,1,DAY 1,2006-11-15,1
ABC,VS,ABC-02-039,28,SYSBP,Systolic Blood Pressure,SITTING,110,mmHg,110,110,mmHg,,2,WEEK 2,2006-11-30,16
ABC,VS,ABC-02-039,29,SYSBP,Systolic Blood Pressure,SITTING,138,mmHg,138,138,mmHg,,4,WEEK 4,2006-12-12,28
ABC,VS,ABC-02-039,30,SYSBP,Systolic Blood Pressure,SITTING,130,mmHg,130,130,mmHg,,6,WEEK 6,2006-12-28,44
ABC,VS,ABC-02-039,31,SYSBP,Systolic Blood Pressure,SITTING,132,mmHg,132,132,mmHg,,8,WEEK 8,2007-01-10,57
ABC,VS,ABC-02-039,32,SYSBP,Systolic Blood Pressure,SITTING,172,mmHg,172,172,mmHg,,12,WEEK 12,2007-02-07,85
ABC,VS,ABC-02-039,33,SYSBP,Systolic Blood Pressure,SITTING,140,mmHg,140,140,mmHg,,16,WEEK 16,2007-03-06,112
ABC,VS,ABC-02-039,34,TEMP,Temperature,,36.2,C,36.2,36.2,C,,0,SCREENING,2006-11-06,-9
ABC,VS,ABC-02-039,35,TEMP,Temperature,,36.7,C,36.7,36.7,C,Y,1,DAY 1,2006-11-15,1
ABC,VS,ABC-02-039,36,TEMP,Temperature,,36.1,C,36.1,36.1,C,,2,WEEK 2,2006-11-30,16
ABC,VS,ABC-02-039,37,TEMP,Temperature,,36.3,C,36.3,36.3,C,,4,WEEK 4,2006-12-12,28
ABC,VS,ABC-02-039,38,TEMP,Temperature,,36.2,C,36.2,36.2,C,,6,WEEK 6,2006-12-28,44
ABC,VS,ABC-02-039,39,TEMP,Temperature,,36.2,C,36.2,36.2,C,,8,WEEK 8,2007-01-10,57
ABC,VS,ABC-02-039,40,TEMP,Temperature,,36.3,C,36.3,36.3,C,,12,WEEK 12,2007-02-07,85
ABC,VS,ABC-02-039,41,TEMP,Temperature,,36.6,C,36.6,36.6,C,,16,WEEK 16,2007-03-06,112
ABC,VS,ABC-02-039,42,WEIGHT,Weight,,73.6,kg,73.6,73.6,kg,Y,0,SCREENING,2006-11-06,-9
ABC,VS,ABC-02-040,1,DIABP,Diastolic Blood Pressure,SITTING,88,mmHg,88,88,mmHg,,0,SCREENING,2006-11-29,-8
ABC,VS,ABC-02-040,2,DIABP,Diastolic Blood Pressure,SITTING,84,mmHg,84,84,mmHg,Y,1,DAY 1,2006-12-07,1
ABC,VS,ABC-02-040,3,DIABP,Diastolic Blood Pressure,SITTING,88,mmHg,88,88,mmHg,,2,WEEK 2,2006-12-19,13
ABC,VS,ABC-02-040,4,DIABP,Diastolic Blood Pressure,SITTING,88,mmHg,88,88,mmHg,,4,WEEK 4,2007-01-05,30
ABC,VS,ABC-02-040,5,DIABP,Diastolic Blood Pressure,SITTING,88,mmHg,88,88,mmHg,,6,WEEK 6,2007-01-18,43
ABC,VS,ABC-02-040,6,DIABP,Diastolic Blood Pressure,SITTING,84,mmHg,84,84,mmHg,,8,WEEK 8,2007-01-31,56
ABC,VS,ABC-02-040,7,DIABP,Diastolic Blood Pressure,SITTING,90,mmHg,90,90,mmHg,,12,WEEK 12,2007-03-01,85
ABC,VS,ABC-02-040,8,DIABP,Diastolic Blood Pressure,SITTING,78,mmHg,78,78,mmHg,,16,WEEK 16,2007-03-29,113
ABC,VS,ABC-02-040,9,HEIGHT,Height,,172,cm,172,172,cm,Y,0,SCREENING,2006-11-29,-8
ABC,VS,ABC-02-040,10,PULSE,Pulse Rate,,66,BEATS/MIN,66,66,BEATS/MIN,,0,SCREENING,2006-11-29,-8
ABC,VS,ABC-02-040,11,PULSE,Pulse Rate,,66,BEATS/MIN,66,66,BEATS/MIN,Y,1,DAY 1,2006-12-07,1
ABC,VS,ABC-02-040,12,PULSE,Pulse Rate,,90,BEATS/MIN,90,90,BEATS/MIN,,2,WEEK 2,2006-12-19,13
ABC,VS,ABC-02-040,13,PULSE,Pulse Rate,,66,BEATS/MIN,66,66,BEATS/MIN,,4,WEEK 4,2007-01-05,30
ABC,VS,ABC-02-040,14,PULSE,Pulse Rate,,66,BEATS/MIN,66,66,BEATS/MIN,,6,WEEK 6,2007-01-18,43
ABC,VS,ABC-02-040,15,PULSE,Pulse Rate,,66,BEATS/MIN,66,66,BEATS/MIN,,8,WEEK 8,2007-01-31,56
ABC,VS,ABC-02-040,16,PULSE,Pulse Rate,,60,BEATS/MIN,60,60,BEATS/MIN,,12,WEEK 12,2007-03-01,85
ABC,VS,ABC-02-040,17,PULSE,Pulse Rate,,72,BEATS/MIN,72,72,BEATS/MIN,,16,WEEK 16,2007-03-29,113
ABC,VS,ABC-02-040,18,RESP,Respiratory Rate,,8,BREATHS/MIN,8,8,BREATHS/MIN,,0,SCREENING,2006-11-29,-8
ABC,VS,ABC-02-040,19,RESP,Respiratory Rate,,12,BREATHS/MIN,12,12,BREATHS/MIN,Y,1,DAY 1,2006-12-07,1
ABC,VS,ABC-02-040,20,RESP,Respiratory Rate,,18,BREATHS/MIN,18,18,BREATHS/MIN,,2,WEEK 2,2006-12-19,13
ABC,VS,ABC-02-040,21,RESP,Respiratory Rate,,12,BREATHS/MIN,12,12,BREATHS/MIN,,4,WEEK 4,2007-01-05,30
ABC,VS,ABC-02-040,22,RESP,Respiratory Rate,,8,BREATHS/MIN,8,8,BREATHS/MIN,,6,WEEK 6,2007-01-18,43
ABC,VS,ABC-02-040,23,RESP,Respiratory Rate,,12,BREATHS/MIN,12,12,BREATHS/MIN,,8,WEEK 8,2007-01-31,56
ABC,VS,ABC-02-040,24,RESP,Respiratory Rate,,12,BREATHS/MIN,12,12,BREATHS/MIN,,12,WEEK 12,2007-03-01,85
ABC,VS,ABC-02-040,25,RESP,Respiratory Rate,,12,BREATHS/MIN,12,12,BREATHS/MIN,,16,WEEK 16,2007-03-29,113
ABC,VS,ABC-02-040,26,SYSBP,Systolic Blood Pressure,SITTING,140,mmHg,140,140,mmHg,,0,SCREENING,2006-11-29,-8
ABC,VS,ABC-02-040,27,SYSBP,Systolic Blood Pressure,SITTING,148,mmHg,148,148,mmHg,Y,1,DAY 1,2006-12-07,1
ABC,VS,ABC-02-040,28,SYSBP,Systolic Blood Pressure,SITTING,140,mmHg,140,140,mmHg,,2,WEEK 2,2006-12-19,13
ABC,VS,ABC-02-040,29,SYSBP,Systolic Blood Pressure,SITTING,142,mmHg,142,142,mmHg,,4,WEEK 4,2007-01-05,30
ABC,VS,ABC-02-040,30,SYSBP,Systolic Blood Pressure,SITTING,146,mmHg,146,146,mmHg,,6,WEEK 6,2007-01-18,43
ABC,VS,ABC-02-040,31,SYSBP,Systolic Blood Pressure,SITTING,146,mmHg,146,146,mmHg,,8,WEEK 8,2007-01-31,56
ABC,VS,ABC-02-040,32,SYSBP,Systolic Blood Pressure,SITTING,142,mmHg,142,142,mmHg,,12,WEEK 12,2007-03-01,85
ABC,VS,ABC-02-040,33,SYSBP,Systolic Blood Pressure,SITTING,130,mmHg,130,130,mmHg,,16,WEEK 16,2007-03-29,113
ABC,VS,ABC-02-040,34,TEMP,Temperature,,36.3,C,36.3,36.3,C,,0,SCREENING,2006-11-29,-8
ABC,VS,ABC-02-040,35,TEMP,Temperature,,36.3,C,36.3,36.3,C,Y,1,DAY 1,2006-12-07,1
ABC,VS,ABC-02-040,36,TEMP,Temperature,,36.4,C,36.4,36.4,C,,2,WEEK 2,2006-12-19,13
ABC,VS,ABC-02-040,37,TEMP,Temperature,,36.3,C,36.3,36.3,C,,4,WEEK 4,2007-01-05,30
ABC,VS,ABC-02-040,38,TEMP,Temperature,,36.5,C,36.5,36.5,C,,6,WEEK 6,2007-01-18,43
ABC,VS,ABC-02-040,39,TEMP,Temperature,,36.1,C,36.1,36.1,C,,8,WEEK 8,2007-01-31,56
ABC,VS,ABC-02-040,40,TEMP,Temperature,,36.4,C,36.4,36.4,C,,12,WEEK 12,2007-03-01,85
ABC,VS,ABC-02-040,41,TEMP,Temperature,,36.7,C,36.7,36.7,C,,16,WEEK 16,2007-03-29,113
ABC,VS,ABC-02-040,42,WEIGHT,Weight,,115.5,kg,115.5,115.5,kg,Y,0,SCREENING,2006-11-29,-8
ABC,VS,ABC-02-109,1,DIABP,Diastolic Blood Pressure,SITTING,80,mmHg,80,80,mmHg,,0,SCREENING,2006-11-28,-9
ABC,VS,ABC-02-109,2,DIABP,Diastolic Blood Pressure,SITTING,78,mmHg,78,78,mmHg,Y,1,DAY 1,2006-12-07,1
ABC,VS,ABC-02-109,3,DIABP,Diastolic Blood Pressure,SITTING,76,mmHg,76,76,mmHg,,2,WEEK 2,2006-12-19,13
ABC,VS,ABC-02-109,4,DIABP,Diastolic Blood Pressure,SITTING,78,mmHg,78,78,mmHg,,4,WEEK 4,2007-01-05,30
ABC,VS,ABC-02-109,5,DIABP,Diastolic Blood Pressure,SITTING,78,mmHg,78,78,mmHg,,6,WEEK 6,2007-01-18,43
ABC,VS,ABC-02-109,6,DIABP,Diastolic Blood Pressure,SITTING,76,mmHg,76,76,mmHg,,8,WEEK 8,2007-01-30,55
ABC,VS,ABC-02-109,7,DIABP,Diastolic Blood Pressure,SITTING,78,mmHg,78,78,mmHg,,12,WEEK 12,2007-03-01,85
ABC,VS,ABC-02-109,8,DIABP,Diastolic Blood Pressure,SITTING,78,mmHg,78,78,mmHg,,16,WEEK 16,2007-03-28,112
ABC,VS,ABC-02-109,9,HEIGHT,Height,,182.5,cm,182.5,182.5,cm,Y,0,SCREENING,2006-11-28,-9
ABC,VS,ABC-02-109,10,PULSE,Pulse Rate,,84,BEATS/MIN,84,84,BEATS/MIN,,0,SCREENING,2006-11-28,-9
ABC,VS,ABC-02-109,11,PULSE,Pulse Rate,,72,BEATS/MIN,72,72,BEATS/MIN,Y,1,DAY 1,2006-12-07,1
ABC,VS,ABC-02-109,12,PULSE,Pulse Rate,,72,BEATS/MIN,72,72,BEATS/MIN,,2,WEEK 2,2006-12-19,13
ABC,VS,ABC-02-109,13,PULSE,Pulse Rate,,90,BEATS/MIN,90,90,BEATS/MIN,,4,WEEK 4,2007-01-05,30
ABC,VS,ABC-02-109,14,PULSE,Pulse Rate,,84,BEATS/MIN,84,84,BEATS/MIN,,6,WEEK 6,2007-01-18,43
ABC,VS,ABC-02-109,15,PULSE,Pulse Rate,,66,BEATS/MIN,66,66,BEATS/MIN,,8,WEEK 8,2007-01-30,55
ABC,VS,ABC-02-109,16,PULSE,Pulse Rate,,72,BEATS/MIN,72,72,BEATS/MIN,,12,WEEK 12,2007-03-01,85
ABC,VS,ABC-02-109,17,PULSE,Pulse Rate,,78,BEATS/MIN,78,78,BEATS/MIN,,16,WEEK 16,2007-03-28,112
ABC,VS,ABC-02-109,18,RESP,Respiratory Rate,,8,BREATHS/MIN,8,8,BREATHS/MIN,,0,SCREENING,2006-11-28,-9
ABC,VS,ABC-02-109,19,RESP,Respiratory Rate,,18,BREATHS/MIN,18,18,BREATHS/MIN,Y,1,DAY 1,2006-12-07,1
ABC,VS,ABC-02-109,20,RESP,Respiratory Rate,,12,BREATHS/MIN,12,12,BREATHS/MIN,,2,WEEK 2,2006-12-19,13
ABC,VS,ABC-02-109,21,RESP,Respiratory Rate,,16,BREATHS/MIN,16,16,BREATHS/MIN,,4,WEEK 4,2007-01-05,30
ABC,VS,ABC-02-109,22,RESP,Respiratory Rate,,12,BREATHS/MIN,12,12,BREATHS/MIN,,6,WEEK 6,2007-01-18,43
ABC,VS,ABC-02-109,23,RESP,Respiratory Rate,,8,BREATHS/MIN,8,8,BREATHS/MIN,,8,WEEK 8,2007-01-30,55
ABC,VS,ABC-02-109,24,RESP,Respiratory Rate,,8,BREATHS/MIN,8,8,BREATHS/MIN,,12,WEEK 12,2007-03-01,85
ABC,VS,ABC-02-109,25,RESP,Respiratory Rate,,8,BREATHS/MIN,8,8,BREATHS/MIN,,16,WEEK 16,2007-03-28,112
ABC,VS,ABC-02-109,26,SYSBP,Systolic Blood Pressure,SITTING,118,mmHg,118,118,mmHg,,0,SCREENING,2006-11-28,-9
ABC,VS,ABC-02-109,27,SYSBP,Systolic Blood Pressure,SITTING,118,mmHg,118,118,mmHg,Y,1,DAY 1,2006-12-07,1
ABC,VS,ABC-02-109,28,SYSBP,Systolic Blood Pressure,SITTING,110,mmHg,110,110,mmHg,,2,WEEK 2,2006-12-19,13
ABC,VS,ABC-02-109,29,SYSBP,Systolic Blood Pressure,SITTING,118,mmHg,118,118,mmHg,,4,WEEK 4,2007-01-05,30
ABC,VS,ABC-02-109,30,SYSBP,Systolic Blood Pressure,SITTING,108,mmHg,108,108,mmHg,,6,WEEK 6,2007-01-18,43
ABC,VS,ABC-02-109,31,SYSBP,Systolic Blood Pressure,SITTING,112,mmHg,112,112,mmHg,,8,WEEK 8,2007-01-30,55
ABC,VS,ABC-02-109,32,SYSBP,Systolic Blood Pressure,SITTING,114,mmHg,114,114,mmHg,,12,WEEK 12,2007-03-01,85
ABC,VS,ABC-02-109,33,SYSBP,Systolic Blood Pressure,SITTING,120,mmHg,120,120,mmHg,,16,WEEK 16,2007-03-28,112
ABC,VS,ABC-02-109,34,TEMP,Temperature,,36.2,C,36.2,36.2,C,,0,SCREENING,2006-11-28,-9
ABC,VS,ABC-02-109,35,TEMP,Temperature,,36.4,C,36.4,36.4,C,Y,1,DAY 1,2006-12-07,1
ABC,VS,ABC-02-109,36,TEMP,Temperature,,36.1,C,36.1,36.1,C,,4,WEEK 4,2007-01-05,30
ABC,VS,ABC-02-109,37,TEMP,Temperature,,36.2,C,36.2,36.2,C,,6,WEEK 6,2007-01-18,43
ABC,VS,ABC-02-109,38,TEMP,Temperature,,36.1,C,36.1,36.1,C,,8,WEEK 8,2007-01-30,55
ABC,VS,ABC-02-109,39,TEMP,Temperature,,36.1,C,36.1,36.1,C,,12,WEEK 12,2007-03-01,85
ABC,VS,ABC-02-109,40,TEMP,Temperature,,36.1,C,36.1,36.1,C,,16,WEEK 16,2007-03-28,112
ABC,VS,ABC-02-109,41,WEIGHT,Weight,,100.5,kg,100.5,100.5,kg,Y,0,SCREENING,2006-11-28,-9
ABC,VS,ABC-02-110,1,DIABP,Diastolic Blood Pressure,SITTING,78,mmHg,78,78,mmHg,,0,SCREENING,2006-12-11,-7
ABC,VS,ABC-02-110,2,DIABP,Diastolic Blood Pressure,SITTING,68,mmHg,68,68,mmHg,Y,1,DAY 1,2006-12-18,1
ABC,VS,ABC-02-110,3,DIABP,Diastolic Blood Pressure,SITTING,78,mmHg,78,78,mmHg,,2,WEEK 2,2007-01-02,16
ABC,VS,ABC-02-110,4,DIABP,Diastolic Blood Pressure,SITTING,80,mmHg,80,80,mmHg,,4,WEEK 4,2007-01-16,30
ABC,VS,ABC-02-110,5,DIABP,Diastolic Blood Pressure,SITTING,82,mmHg,82,82,mmHg,,6,WEEK 6,2007-01-29,43
ABC,VS,ABC-02-110,6,DIABP,Diastolic Blood Pressure,SITTING,82,mmHg,82,82,mmHg,,8,WEEK 8,2007-02-12,57
ABC,VS,ABC-02-110,7,DIABP,Diastolic Blood Pressure,SITTING,74,mmHg,74,74,mmHg,,12,WEEK 12,2007-03-12,85
ABC,VS,ABC-02-110,8,DIABP,Diastolic Blood Pressure,SITTING,78,mmHg,78,78,mmHg,,16,WEEK 16,2007-04-09,113
ABC,VS,ABC-02-110,9,HEIGHT,Height,,159,cm,159,159,cm,Y,0,SCREENING,2006-12-11,-7
ABC,VS,ABC-02-110,10,PULSE,Pulse Rate,,66,BEATS/MIN,66,66,BEATS/MIN,,0,SCREENING,2006-12-11,-7
ABC,VS,ABC-02-110,11,PULSE,Pulse Rate,,66,BEATS/MIN,66,66,BEATS/MIN,Y,1,DAY 1,2006-12-18,1
ABC,VS,ABC-02-110,12,PULSE,Pulse Rate,,60,BEATS/MIN,60,60,BEATS/MIN,,2,WEEK 2,2007-01-02,16
ABC,VS,ABC-02-110,13,PULSE,Pulse Rate,,72,BEATS/MIN,72,72,BEATS/MIN,,4,WEEK 4,2007-01-16,30
ABC,VS,ABC-02-110,14,PULSE,Pulse Rate,,72,BEATS/MIN,72,72,BEATS/MIN,,6,WEEK 6,2007-01-29,43
ABC,VS,ABC-02-110,15,PULSE,Pulse Rate,,66,BEATS/MIN,66,66,BEATS/MIN,,8,WEEK 8,2007-02-12,57
ABC,VS,ABC-02-110,16,PULSE,Pulse Rate,,68,BEATS/MIN,68,68,BEATS/MIN,,12,WEEK 12,2007-03-12,85
ABC,VS,ABC-02-110,17,PULSE,Pulse Rate,,66,BEATS/MIN,66,66,BEATS/MIN,,16,WEEK 16,2007-04-09,113
ABC,VS,ABC-02-110,18,RESP,Respiratory Rate,,12,BREATHS/MIN,12,12,BREATHS/MIN,,0,SCREENING,2006-12-11,-7
ABC,VS,ABC-02-110,19,RESP,Respiratory Rate,,8,BREATHS/MIN,8,8,BREATHS/MIN,Y,1,DAY 1,2006-12-18,1
ABC,VS,ABC-02-110,20,RESP,Respiratory Rate,,16,BREATHS/MIN,16,16,BREATHS/MIN,,2,WEEK 2,2007-01-02,16
ABC,VS,ABC-02-110,21,RESP,Respiratory Rate,,8,BREATHS/MIN,8,8,BREATHS/MIN,,4,WEEK 4,2007-01-16,30
ABC,VS,ABC-02-110,22,RESP,Respiratory Rate,,8,BREATHS/MIN,8,8,BREATHS/MIN,,6,WEEK 6,2007-01-29,43
ABC,VS,ABC-02-110,23,RESP,Respiratory Rate,,8,BREATHS/MIN,8,8,BREATHS/MIN,,8,WEEK 8,2007-02-12,57
ABC,VS,ABC-02-110,24,RESP,Respiratory Rate,,14,BREATHS/MIN,14,14,BREATHS/MIN,,12,WEEK 12,2007-03-12,85
ABC,VS,ABC-02-110,25,RESP,Respiratory Rate,,8,BREATHS/MIN,8,8,BREATHS/MIN,,16,WEEK 16,2007-04-09,113
ABC,VS,ABC-02-110,26,SYSBP,Systolic Blood Pressure,SITTING,104,mmHg,104,104,mmHg,,0,SCREENING,2006-12-11,-7
ABC,VS,ABC-02-110,27,SYSBP,Systolic Blood Pressure,SITTING,108,mmHg,108,108,mmHg,Y,1,DAY 1,2006-12-18,1
ABC,VS,ABC-02-110,28,SYSBP,Systolic Blood Pressure,SITTING,120,mmHg,120,120,mmHg,,2,WEEK 2,2007-01-02,16
ABC,VS,ABC-02-110,29,SYSBP,Systolic Blood Pressure,SITTING,120,mmHg,120,120,mmHg,,4,WEEK 4,2007-01-16,30
ABC,VS,ABC-02-110,30,SYSBP,Systolic Blood Pressure,SITTING,122,mmHg,122,122,mmHg,,6,WEEK 6,2007-01-29,43
ABC,VS,ABC-02-110,31,SYSBP,Systolic Blood Pressure,SITTING,118,mmHg,118,118,mmHg,,8,WEEK 8,2007-02-12,57
ABC,VS,ABC-02-110,32,SYSBP,Systolic Blood Pressure,SITTING,110,mmHg,110,110,mmHg,,12,WEEK 12,2007-03-12,85
ABC,VS,ABC-02-110,33,SYSBP,Systolic Blood Pressure,SITTING,124,mmHg,124,124,mmHg,,16,WEEK 16,2007-04-09,113
ABC,VS,ABC-02-110,34,TEMP,Temperature,,36.3,C,36.3,36.3,C,,0,SCREENING,2006-12-11,-7
ABC,VS,ABC-02-110,35,TEMP,Temperature,,36.7,C,36.7,36.7,C,Y,1,DAY 1,2006-12-18,1
ABC,VS,ABC-02-110,36,TEMP,Temperature,,36.2,C,36.2,36.2,C,,2,WEEK 2,2007-01-02,16
ABC,VS,ABC-02-110,37,TEMP,Temperature,,36.3,C,36.3,36.3,C,,4,WEEK 4,2007-01-16,30
ABC,VS,ABC-02-110,38,TEMP,Temperature,,36.2,C,36.2,36.2,C,,6,WEEK 6,2007-01-29,43
ABC,VS,ABC-02-110,39,TEMP,Temperature,,36.1,C,36.1,36.1,C,,8,WEEK 8,2007-02-12,57
ABC,VS,ABC-02-110,40,TEMP,Temperature,,36.1,C,36.1,36.1,C,,12,WEEK 12,2007-03-12,85
ABC,VS,ABC-02-110,41,TEMP,Temperature,,36.3,C,36.3,36.3,C,,16,WEEK 16,2007-04-09,113
ABC,VS,ABC-02-110,42,WEIGHT,Weight,,67.6,kg,67.6,67.6,kg,Y,0,SCREENING,2006-12-11,-7
ABC,VS,ABC-02-111,1,DIABP,Diastolic Blood Pressure,SITTING,98,mmHg,98,98,mmHg,,0,SCREENING,2006-12-11,-8
ABC,VS,ABC-02-111,2,DIABP,Diastolic Blood Pressure,SITTING,82,mmHg,82,82,mmHg,Y,1,DAY 1,2006-12-19,1
ABC,VS,ABC-02-111,3,DIABP,Diastolic Blood Pressure,SITTING,84,mmHg,84,84,mmHg,,2,WEEK 2,2007-01-02,15
ABC,VS,ABC-02-111,4,DIABP,Diastolic Blood Pressure,SITTING,78,mmHg,78,78,mmHg,,4,WEEK 4,2007-01-16,29
ABC,VS,ABC-02-111,5,DIABP,Diastolic Blood Pressure,SITTING,92,mmHg,92,92,mmHg,,6,WEEK 6,2007-01-29,42
ABC,VS,ABC-02-111,6,DIABP,Diastolic Blood Pressure,SITTING,82,mmHg,82,82,mmHg,,8,WEEK 8,2007-02-14,58
ABC,VS,ABC-02-111,7,DIABP,Diastolic Blood Pressure,SITTING,80,mmHg,80,80,mmHg,,12,WEEK 12,2007-03-16,88
ABC,VS,ABC-02-111,8,DIABP,Diastolic Blood Pressure,SITTING,90,mmHg,90,90,mmHg,,16,WEEK 16,2007-04-10,113
ABC,VS,ABC-02-111,9,HEIGHT,Height,,179.5,cm,179.5,179.5,cm,Y,0,SCREENING,2006-12-11,-8
ABC,VS,ABC-02-111,10,PULSE,Pulse Rate,,72,BEATS/MIN,72,72,BEATS/MIN,,0,SCREENING,2006-12-11,-8
ABC,VS,ABC-02-111,11,PULSE,Pulse Rate,,72,BEATS/MIN,72,72,BEATS/MIN,Y,1,DAY 1,2006-12-19,1
ABC,VS,ABC-02-111,12,PULSE,Pulse Rate,,80,BEATS/MIN,80,80,BEATS/MIN,,2,WEEK 2,2007-01-02,15
ABC,VS,ABC-02-111,13,PULSE,Pulse Rate,,72,BEATS/MIN,72,72,BEATS/MIN,,4,WEEK 4,2007-01-16,29
ABC,VS,ABC-02-111,14,PULSE,Pulse Rate,,66,BEATS/MIN,66,66,BEATS/MIN,,6,WEEK 6,2007-01-29,42
ABC,VS,ABC-02-111,15,PULSE,Pulse Rate,,78,BEATS/MIN,78,78,BEATS/MIN,,8,WEEK 8,2007-02-14,58
ABC,VS,ABC-02-111,16,PULSE,Pulse Rate,,72,BEATS/MIN,72,72,BEATS/MIN,,12,WEEK 12,2007-03-16,88
ABC,VS,ABC-02-111,17,PULSE,Pulse Rate,,72,BEATS/MIN,72,72,BEATS/MIN,,16,WEEK 16,2007-04-10,113
ABC,VS,ABC-02-111,18,RESP,Respiratory Rate,,18,BREATHS/MIN,18,18,BREATHS/MIN,,0,SCREENING,2006-12-11,-8
ABC,VS,ABC-02-111,19,RESP,Respiratory Rate,,12,BREATHS/MIN,12,12,BREATHS/MIN,Y,1,DAY 1,2006-12-19,1
ABC,VS,ABC-02-111,20,RESP,Respiratory Rate,,12,BREATHS/MIN,12,12,BREATHS/MIN,,2,WEEK 2,2007-01-02,15
ABC,VS,ABC-02-111,21,RESP,Respiratory Rate,,12,BREATHS/MIN,12,12,BREATHS/MIN,,4,WEEK 4,2007-01-16,29
ABC,VS,ABC-02-111,22,RESP,Respiratory Rate,,8,BREATHS/MIN,8,8,BREATHS/MIN,,6,WEEK 6,2007-01-29,42
ABC,VS,ABC-02-111,23,RESP,Respiratory Rate,,12,BREATHS/MIN,12,12,BREATHS/MIN,,8,WEEK 8,2007-02-14,58
ABC,VS,ABC-02-111,24,RESP,Respiratory Rate,,8,BREATHS/MIN,8,8,BREATHS/MIN,,12,WEEK 12,2007-03-16,88
ABC,VS,ABC-02-111,25,RESP,Respiratory Rate,,8,BREATHS/MIN,8,8,BREATHS/MIN,,16,WEEK 16,2007-04-10,113
ABC,VS,ABC-02-111,26,SYSBP,Systolic Blood Pressure,SITTING,136,mmHg,136,136,mmHg,,0,SCREENING,2006-12-11,-8
ABC,VS,ABC-02-111,27,SYSBP,Systolic Blood Pressure,SITTING,118,mmHg,118,118,mmHg,Y,1,DAY 1,2006-12-19,1
ABC,VS,ABC-02-111,28,SYSBP,Systolic Blood Pressure,SITTING,132,mmHg,132,132,mmHg,,2,WEEK 2,2007-01-02,15
ABC,VS,ABC-02-111,29,SYSBP,Systolic Blood Pressure,SITTING,122,mmHg,122,122,mmHg,,4,WEEK 4,2007-01-16,29
ABC,VS,ABC-02-111,30,SYSBP,Systolic Blood Pressure,SITTING,128,mmHg,128,128,mmHg,,6,WEEK 6,2007-01-29,42
ABC,VS,ABC-02-111,31,SYSBP,Systolic Blood Pressure,SITTING,120,mmHg,120,120,mmHg,,8,WEEK 8,2007-02-14,58
ABC,VS,ABC-02-111,32,SYSBP,Systolic Blood Pressure,SITTING,120,mmHg,120,120,mmHg,,12,WEEK 12,2007-03-16,88
ABC,VS,ABC-02-111,33,SYSBP,Systolic Blood Pressure,SITTING,130,mmHg,130,130,mmHg,,16,WEEK 16,2007-04-10,113
ABC,VS,ABC-02-111,34,TEMP,Temperature,,36.2,C,36.2,36.2,C,,0,SCREENING,2006-12-11,-8
ABC,VS,ABC-02-111,35,TEMP,Temperature,,36.4,C,36.4,36.4,C,Y,1,DAY 1,2006-12-19,1
ABC,VS,ABC-02-111,36,TEMP,Temperature,,36.1,C,36.1,36.1,C,,2,WEEK 2,2007-01-02,15
ABC,VS,ABC-02-111,37,TEMP,Temperature,,36.3,C,36.3,36.3,C,,4,WEEK 4,2007-01-16,29
ABC,VS,ABC-02-111,38,TEMP,Temperature,,36.5,C,36.5,36.5,C,,6,WEEK 6,2007-01-29,42
ABC,VS,ABC-02-111,39,TEMP,Temperature,,36.2,C,36.2,36.2,C,,8,WEEK 8,2007-02-14,58
ABC,VS,ABC-02-111,40,TEMP,Temperature,,36,C,36,36,C,,12,WEEK 12,2007-03-16,88
ABC,VS,ABC-02-111,41,TEMP,Temperature,,36.2,C,36.2,36.2,C,,16,WEEK 16,2007-04-10,113
ABC,VS,ABC-02-111,42,WEIGHT,Weight,,93.2,kg,93.2,93.2,kg,Y,0,SCREENING,2006-12-11,-8
ABC,VS,ABC-02-112,1,DIABP,Diastolic Blood Pressure,SITTING,86,mmHg,86,86,mmHg,,0,SCREENING,2006-12-12,-7
ABC,VS,ABC-02-112,2,DIABP,Diastolic Blood Pressure,SITTING,78,mmHg,78,78,mmHg,Y,1,DAY 1,2006-12-19,1
ABC,VS,ABC-02-112,3,DIABP,Diastolic Blood Pressure,SITTING,70,mmHg,70,70,mmHg,,2,WEEK 2,2007-01-04,17
ABC,VS,ABC-02-112,4,DIABP,Diastolic Blood Pressure,SITTING,82,mmHg,82,82,mmHg,,4,WEEK 4,2007-01-16,29
ABC,VS,ABC-02-112,5,DIABP,Diastolic Blood Pressure,SITTING,78,mmHg,78,78,mmHg,,6,WEEK 6,2007-01-31,44
ABC,VS,ABC-02-112,6,DIABP,Diastolic Blood Pressure,SITTING,84,mmHg,84,84,mmHg,,8,WEEK 8,2007-02-15,59
ABC,VS,ABC-02-112,7,DIABP,Diastolic Blood Pressure,SITTING,82,mmHg,82,82,mmHg,,12,WEEK 12,2007-03-15,87
ABC,VS,ABC-02-112,8,DIABP,Diastolic Blood Pressure,SITTING,80,mmHg,80,80,mmHg,,16,WEEK 16,2007-04-10,113
ABC,VS,ABC-02-112,9,HEIGHT,Height,,168.5,cm,168.5,168.5,cm,Y,0,SCREENING,2006-12-12,-7
ABC,VS,ABC-02-112,10,PULSE,Pulse Rate,,84,BEATS/MIN,84,84,BEATS/MIN,,0,SCREENING,2006-12-12,-7
ABC,VS,ABC-02-112,11,PULSE,Pulse Rate,,78,BEATS/MIN,78,78,BEATS/MIN,Y,1,DAY 1,2006-12-19,1
ABC,VS,ABC-02-112,12,PULSE,Pulse Rate,,76,BEATS/MIN,76,76,BEATS/MIN,,2,WEEK 2,2007-01-04,17
ABC,VS,ABC-02-112,13,PULSE,Pulse Rate,,90,BEATS/MIN,90,90,BEATS/MIN,,4,WEEK 4,2007-01-16,29
ABC,VS,ABC-02-112,14,PULSE,Pulse Rate,,72,BEATS/MIN,72,72,BEATS/MIN,,6,WEEK 6,2007-01-31,44
ABC,VS,ABC-02-112,15,PULSE,Pulse Rate,,84,BEATS/MIN,84,84,BEATS/MIN,,8,WEEK 8,2007-02-15,59
ABC,VS,ABC-02-112,16,PULSE,Pulse Rate,,78,BEATS/MIN,78,78,BEATS/MIN,,12,WEEK 12,2007-03-15,87
ABC,VS,ABC-02-112,17,PULSE,Pulse Rate,,78,BEATS/MIN,78,78,BEATS/MIN,,16,WEEK 16,2007-04-10,113
ABC,VS,ABC-02-112,18,RESP,Respiratory Rate,,12,BREATHS/MIN,12,12,BREATHS/MIN,,0,SCREENING,2006-12-12,-7
ABC,VS,ABC-02-112,19,RESP,Respiratory Rate,,18,BREATHS/MIN,18,18,BREATHS/MIN,Y,1,DAY 1,2006-12-19,1
ABC,VS,ABC-02-112,20,RESP,Respiratory Rate,,18,BREATHS/MIN,18,18,BREATHS/MIN,,2,WEEK 2,2007-01-04,17
ABC,VS,ABC-02-112,21,RESP,Respiratory Rate,,12,BREATHS/MIN,12,12,BREATHS/MIN,,4,WEEK 4,2007-01-16,29
ABC,VS,ABC-02-112,22,RESP,Respiratory Rate,,8,BREATHS/MIN,8,8,BREATHS/MIN,,6,WEEK 6,2007-01-31,44
ABC,VS,ABC-02-112,23,RESP,Respiratory Rate,,12,BREATHS/MIN,12,12,BREATHS/MIN,,8,WEEK 8,2007-02-15,59
ABC,VS,ABC-02-112,24,RESP,Respiratory Rate,,8,BREATHS/MIN,8,8,BREATHS/MIN,,12,WEEK 12,2007-03-15,87
ABC,VS,ABC-02-112,25,RESP,Respiratory Rate,,12,BREATHS/MIN,12,12,BREATHS/MIN,,16,WEEK 16,2007-04-10,113
ABC,VS,ABC-02-112,26,SYSBP,Systolic Blood Pressure,SITTING,122,mmHg,122,122,mmHg,,0,SCREENING,2006-12-12,-7
ABC,VS,ABC-02-112,27,SYSBP,Systolic Blood Pressure,SITTING,114,mmHg,114,114,mmHg,Y,1,DAY 1,2006-12-19,1
ABC,VS,ABC-02-112,28,SYSBP,Systolic Blood Pressure,SITTING,110,mmHg,110,110,mmHg,,2,WEEK 2,2007-01-04,17
ABC,VS,ABC-02-112,29,SYSBP,Systolic Blood Pressure,SITTING,118,mmHg,118,118,mmHg,,4,WEEK 4,2007-01-16,29
ABC,VS,ABC-02-112,30,SYSBP,Systolic Blood Pressure,SITTING,116,mmHg,116,116,mmHg,,6,WEEK 6,2007-01-31,44
ABC,VS,ABC-02-112,31,SYSBP,Systolic Blood Pressure,SITTING,120,mmHg,120,120,mmHg,,8,WEEK 8,2007-02-15,59
ABC,VS,ABC-02-112,32,SYSBP,Systolic Blood Pressure,SITTING,118,mmHg,118,118,mmHg,,12,WEEK 12,2007-03-15,87
ABC,VS,ABC-02-112,33,SYSBP,Systolic Blood Pressure,SITTING,122,mmHg,122,122,mmHg,,16,WEEK 16,2007-04-10,113
ABC,VS,ABC-02-112,34,TEMP,Temperature,,36.4,C,36.4,36.4,C,,0,SCREENING,2006-12-12,-7
ABC,VS,ABC-02-112,35,TEMP,Temperature,,36.4,C,36.4,36.4,C,Y,1,DAY 1,2006-12-19,1
ABC,VS,ABC-02-112,36,TEMP,Temperature,,36.1,C,36.1,36.1,C,,2,WEEK 2,2007-01-04,17
ABC,VS,ABC-02-112,37,TEMP,Temperature,,36,C,36,36,C,,4,WEEK 4,2007-01-16,29
ABC,VS,ABC-02-112,38,TEMP,Temperature,,36.4,C,36.4,36.4,C,,6,WEEK 6,2007-01-31,44
ABC,VS,ABC-02-112,39,TEMP,Temperature,,36.2,C,36.2,36.2,C,,8,WEEK 8,2007-02-15,59
ABC,VS,ABC-02-112,40,TEMP,Temperature,,36.1,C,36.1,36.1,C,,12,WEEK 12,2007-03-15,87
ABC,VS,ABC-02-112,41,TEMP,Temperature,,36.5,C,36.5,36.5,C,,16,WEEK 16,2007-04-10,113
ABC,VS,ABC-02-112,42,WEIGHT,Weight,,69.3,kg,69.3,69.3,kg,Y,0,SCREENING,2006-12-12,-7
ABC,VS,ABC-03-001,1,DIABP,Diastolic Blood Pressure,SITTING,88,mmHg,88,88,mmHg,,0,SCREENING,2006-09-26,-14
ABC,VS,ABC-03-001,2,DIABP,Diastolic Blood Pressure,SITTING,94,mmHg,94,94,mmHg,Y,1,DAY 1,2006-10-10,1
ABC,VS,ABC-03-001,3,DIABP,Diastolic Blood Pressure,SITTING,91,mmHg,91,91,mmHg,,2,WEEK 2,2006-10-24,15
ABC,VS,ABC-03-001,4,DIABP,Diastolic Blood Pressure,SITTING,94,mmHg,94,94,mmHg,,4,WEEK 4,2006-11-07,29
ABC,VS,ABC-03-001,5,DIABP,Diastolic Blood Pressure,SITTING,89,mmHg,89,89,mmHg,,6,WEEK 6,2006-11-21,43
ABC,VS,ABC-03-001,6,DIABP,Diastolic Blood Pressure,SITTING,98,mmHg,98,98,mmHg,,8,WEEK 8,2006-12-05,57
ABC,VS,ABC-03-001,7,DIABP,Diastolic Blood Pressure,SITTING,100,mmHg,100,100,mmHg,,12,WEEK 12,2007-01-02,85
ABC,VS,ABC-03-001,8,DIABP,Diastolic Blood Pressure,SITTING,89,mmHg,89,89,mmHg,,16,WEEK 16,2007-01-30,113
ABC,VS,ABC-03-001,9,HEIGHT,Height,,169,cm,169,169,cm,Y,0,SCREENING,2006-09-26,-14
ABC,VS,ABC-03-001,10,PULSE,Pulse Rate,,74,BEATS/MIN,74,74,BEATS/MIN,,0,SCREENING,2006-09-26,-14
ABC,VS,ABC-03-001,11,PULSE,Pulse Rate,,74,BEATS/MIN,74,74,BEATS/MIN,Y,1,DAY 1,2006-10-10,1
ABC,VS,ABC-03-001,12,PULSE,Pulse Rate,,85,BEATS/MIN,85,85,BEATS/MIN,,2,WEEK 2,2006-10-24,15
ABC,VS,ABC-03-001,13,PULSE,Pulse Rate,,93,BEATS/MIN,93,93,BEATS/MIN,,4,WEEK 4,2006-11-07,29
ABC,VS,ABC-03-001,14,PULSE,Pulse Rate,,91,BEATS/MIN,91,91,BEATS/MIN,,6,WEEK 6,2006-11-21,43
ABC,VS,ABC-03-001,15,PULSE,Pulse Rate,,84,BEATS/MIN,84,84,BEATS/MIN,,8,WEEK 8,2006-12-05,57
ABC,VS,ABC-03-001,16,PULSE,Pulse Rate,,80,BEATS/MIN,80,80,BEATS/MIN,,12,WEEK 12,2007-01-02,85
ABC,VS,ABC-03-001,17,PULSE,Pulse Rate,,83,BEATS/MIN,83,83,BEATS/MIN,,16,WEEK 16,2007-01-30,113
ABC,VS,ABC-03-001,18,RESP,Respiratory Rate,,18,BREATHS/MIN,18,18,BREATHS/MIN,,0,SCREENING,2006-09-26,-14
ABC,VS,ABC-03-001,19,RESP,Respiratory Rate,,16,BREATHS/MIN,16,16,BREATHS/MIN,Y,1,DAY 1,2006-10-10,1
ABC,VS,ABC-03-001,20,RESP,Respiratory Rate,,20,BREATHS/MIN,20,20,BREATHS/MIN,,2,WEEK 2,2006-10-24,15
ABC,VS,ABC-03-001,21,RESP,Respiratory Rate,,18,BREATHS/MIN,18,18,BREATHS/MIN,,4,WEEK 4,2006-11-07,29
ABC,VS,ABC-03-001,22,RESP,Respiratory Rate,,18,BREATHS/MIN,18,18,BREATHS/MIN,,6,WEEK 6,2006-11-21,43
ABC,VS,ABC-03-001,23,RESP,Respiratory Rate,,16,BREATHS/MIN,16,16,BREATHS/MIN,,8,WEEK 8,2006-12-05,57
ABC,VS,ABC-03-001,24,RESP,Respiratory Rate,,16,BREATHS/MIN,16,16,BREATHS/MIN,,12,WEEK 12,2007-01-02,85
ABC,VS,ABC-03-001,25,RESP,Respiratory Rate,,16,BREATHS/MIN,16,16,BREATHS/MIN,,16,WEEK 16,2007-01-30,113
ABC,VS,ABC-03-001,26,SYSBP,Systolic Blood Pressure,SITTING,147,mmHg,147,147,mmHg,,0,SCREENING,2006-09-26,-14
ABC,VS,ABC-03-001,27,SYSBP,Systolic Blood Pressure,SITTING,152,mmHg,152,152,mmHg,Y,1,DAY 1,2006-10-10,1
ABC,VS,ABC-03-001,28,SYSBP,Systolic Blood Pressure,SITTING,145,mmHg,145,145,mmHg,,2,WEEK 2,2006-10-24,15
ABC,VS,ABC-03-001,29,SYSBP,Systolic Blood Pressure,SITTING,139,mmHg,139,139,mmHg,,4,WEEK 4,2006-11-07,29
ABC,VS,ABC-03-001,30,SYSBP,Systolic Blood Pressure,SITTING,136,mmHg,136,136,mmHg,,6,WEEK 6,2006-11-21,43
ABC,VS,ABC-03-001,31,SYSBP,Systolic Blood Pressure,SITTING,151,mmHg,151,151,mmHg,,8,WEEK 8,2006-12-05,57
ABC,VS,ABC-03-001,32,SYSBP,Systolic Blood Pressure,SITTING,156,mmHg,156,156,mmHg,,12,WEEK 12,2007-01-02,85
ABC,VS,ABC-03-001,33,SYSBP,Systolic Blood Pressure,SITTING,150,mmHg,150,150,mmHg,,16,WEEK 16,2007-01-30,113
ABC,VS,ABC-03-001,34,TEMP,Temperature,,36,C,36,36,C,,0,SCREENING,2006-09-26,-14
ABC,VS,ABC-03-001,35,TEMP,Temperature,,36.5,C,36.5,36.5,C,Y,1,DAY 1,2006-10-10,1
ABC,VS,ABC-03-001,36,TEMP,Temperature,,36,C,36,36,C,,2,WEEK 2,2006-10-24,15
ABC,VS,ABC-03-001,37,TEMP,Temperature,,35.9,C,35.9,35.9,C,,4,WEEK 4,2006-11-07,29
ABC,VS,ABC-03-001,38,TEMP,Temperature,,36.1,C,36.1,36.1,C,,6,WEEK 6,2006-11-21,43
ABC,VS,ABC-03-001,39,TEMP,Temperature,,36.2,C,36.2,36.2,C,,8,WEEK 8,2006-12-05,57
ABC,VS,ABC-03-001,40,TEMP,Temperature,,36,C,36,36,C,,12,WEEK 12,2007-01-02,85
ABC,VS,ABC-03-001,41,TEMP,Temperature,,36.1,C,36.1,36.1,C,,16,WEEK 16,2007-01-30,113
ABC,VS,ABC-03-001,42,WEIGHT,Weight,,90,kg,90,90,kg,Y,0,SCREENING,2006-09-26,-14
ABC,VS,ABC-03-002,1,DIABP,Diastolic Blood Pressure,SITTING,81,mmHg,81,81,mmHg,,0,SCREENING,2006-09-27,-14
ABC,VS,ABC-03-002,2,DIABP,Diastolic Blood Pressure,SITTING,76,mmHg,76,76,mmHg,Y,1,DAY 1,2006-10-11,1
ABC,VS,ABC-03-002,3,DIABP,Diastolic Blood Pressure,SITTING,76,mmHg,76,76,mmHg,,2,WEEK 2,2006-10-25,15
ABC,VS,ABC-03-002,4,DIABP,Diastolic Blood Pressure,SITTING,68,mmHg,68,68,mmHg,,4,WEEK 4,2006-11-08,29
ABC,VS,ABC-03-002,5,DIABP,Diastolic Blood Pressure,SITTING,82,mmHg,82,82,mmHg,,6,WEEK 6,2006-11-21,42
ABC,VS,ABC-03-002,6,DIABP,Diastolic Blood Pressure,SITTING,73,mmHg,73,73,mmHg,,8,WEEK 8,2006-12-07,58
ABC,VS,ABC-03-002,7,DIABP,Diastolic Blood Pressure,SITTING,67,mmHg,67,67,mmHg,,12,WEEK 12,2007-01-02,84
ABC,VS,ABC-03-002,8,DIABP,Diastolic Blood Pressure,SITTING,68,mmHg,68,68,mmHg,,16,WEEK 16,2007-02-01,114
ABC,VS,ABC-03-002,9,HEIGHT,Height,,169,cm,169,169,cm,Y,0,SCREENING,2006-09-27,-14
ABC,VS,ABC-03-002,10,PULSE,Pulse Rate,,95,BEATS/MIN,95,95,BEATS/MIN,,0,SCREENING,2006-09-27,-14
ABC,VS,ABC-03-002,11,PULSE,Pulse Rate,,103,BEATS/MIN,103,103,BEATS/MIN,Y,1,DAY 1,2006-10-11,1
ABC,VS,ABC-03-002,12,PULSE,Pulse Rate,,93,BEATS/MIN,93,93,BEATS/MIN,,2,WEEK 2,2006-10-25,15
ABC,VS,ABC-03-002,13,PULSE,Pulse Rate,,102,BEATS/MIN,102,102,BEATS/MIN,,4,WEEK 4,2006-11-08,29
ABC,VS,ABC-03-002,14,PULSE,Pulse Rate,,84,BEATS/MIN,84,84,BEATS/MIN,,6,WEEK 6,2006-11-21,42
ABC,VS,ABC-03-002,15,PULSE,Pulse Rate,,86,BEATS/MIN,86,86,BEATS/MIN,,8,WEEK 8,2006-12-07,58
ABC,VS,ABC-03-002,16,PULSE,Pulse Rate,,100,BEATS/MIN,100,100,BEATS/MIN,,12,WEEK 12,2007-01-02,84
ABC,VS,ABC-03-002,17,PULSE,Pulse Rate,,97,BEATS/MIN,97,97,BEATS/MIN,,16,WEEK 16,2007-02-01,114
ABC,VS,ABC-03-002,18,RESP,Respiratory Rate,,20,BREATHS/MIN,20,20,BREATHS/MIN,,0,SCREENING,2006-09-27,-14
ABC,VS,ABC-03-002,19,RESP,Respiratory Rate,,20,BREATHS/MIN,20,20,BREATHS/MIN,Y,1,DAY 1,2006-10-11,1
ABC,VS,ABC-03-002,20,RESP,Respiratory Rate,,18,BREATHS/MIN,18,18,BREATHS/MIN,,2,WEEK 2,2006-10-25,15
ABC,VS,ABC-03-002,21,RESP,Respiratory Rate,,18,BREATHS/MIN,18,18,BREATHS/MIN,,4,WEEK 4,2006-11-08,29
ABC,VS,ABC-03-002,22,RESP,Respiratory Rate,,20,BREATHS/MIN,20,20,BREATHS/MIN,,6,WEEK 6,2006-11-21,42
ABC,VS,ABC-03-002,23,RESP,Respiratory Rate,,16,BREATHS/MIN,16,16,BREATHS/MIN,,8,WEEK 8,2006-12-07,58
ABC,VS,ABC-03-002,24,RESP,Respiratory Rate,,20,BREATHS/MIN,20,20,BREATHS/MIN,,12,WEEK 12,2007-01-02,84
ABC,VS,ABC-03-002,25,RESP,Respiratory Rate,,20,BREATHS/MIN,20,20,BREATHS/MIN,,16,WEEK 16,2007-02-01,114
ABC,VS,ABC-03-002,26,SYSBP,Systolic Blood Pressure,SITTING,148,mmHg,148,148,mmHg,,0,SCREENING,2006-09-27,-14
ABC,VS,ABC-03-002,27,SYSBP,Systolic Blood Pressure,SITTING,161,mmHg,161,161,mmHg,Y,1,DAY 1,2006-10-11,1
ABC,VS,ABC-03-002,28,SYSBP,Systolic Blood Pressure,SITTING,184,mmHg,184,184,mmHg,,2,WEEK 2,2006-10-25,15
ABC,VS,ABC-03-002,29,SYSBP,Systolic Blood Pressure,SITTING,146,mmHg,146,146,mmHg,,4,WEEK 4,2006-11-08,29
ABC,VS,ABC-03-002,30,SYSBP,Systolic Blood Pressure,SITTING,169,mmHg,169,169,mmHg,,6,WEEK 6,2006-11-21,42
ABC,VS,ABC-03-002,31,SYSBP,Systolic Blood Pressure,SITTING,157,mmHg,157,157,mmHg,,8,WEEK 8,2006-12-07,58
ABC,VS,ABC-03-002,32,SYSBP,Systolic Blood Pressure,SITTING,136,mmHg,136,136,mmHg,,12,WEEK 12,2007-01-02,84
ABC,VS,ABC-03-002,33,SYSBP,Systolic Blood Pressure,SITTING,140,mmHg,140,140,mmHg,,16,WEEK 16,2007-02-01,114
ABC,VS,ABC-03-002,34,TEMP,Temperature,,36.7,C,36.7,36.7,C,,0,SCREENING,2006-09-27,-14
ABC,VS,ABC-03-002,35,TEMP,Temperature,,37,C,37,37,C,Y,1,DAY 1,2006-10-11,1
ABC,VS,ABC-03-002,36,TEMP,Temperature,,36.1,C,36.1,36.1,C,,2,WEEK 2,2006-10-25,15
ABC,VS,ABC-03-002,37,TEMP,Temperature,,36.9,C,36.9,36.9,C,,4,WEEK 4,2006-11-08,29
ABC,VS,ABC-03-002,38,TEMP,Temperature,,36.4,C,36.4,36.4,C,,6,WEEK 6,2006-11-21,42
ABC,VS,ABC-03-002,39,TEMP,Temperature,,36.6,C,36.6,36.6,C,,8,WEEK 8,2006-12-07,58
ABC,VS,ABC-03-002,40,TEMP,Temperature,,36.7,C,36.7,36.7,C,,12,WEEK 12,2007-01-02,84
ABC,VS,ABC-03-002,41,TEMP,Temperature,,36.2,C,36.2,36.2,C,,16,WEEK 16,2007-02-01,114
ABC,VS,ABC-03-002,42,WEIGHT,Weight,,104.5,kg,104.5,104.5,kg,Y,0,SCREENING,2006-09-27,-14
ABC,VS,ABC-03-003,1,DIABP,Diastolic Blood Pressure,SITTING,73,mmHg,73,73,mmHg,,0,SCREENING,2006-09-27,-14
ABC,VS,ABC-03-003,2,DIABP,Diastolic Blood Pressure,SITTING,77,mmHg,77,77,mmHg,Y,1,DAY 1,2006-10-11,1
ABC,VS,ABC-03-003,3,DIABP,Diastolic Blood Pressure,SITTING,66,mmHg,66,66,mmHg,,2,WEEK 2,2006-10-25,15
ABC,VS,ABC-03-003,4,DIABP,Diastolic Blood Pressure,SITTING,65,mmHg,65,65,mmHg,,4,WEEK 4,2006-11-08,29
ABC,VS,ABC-03-003,5,DIABP,Diastolic Blood Pressure,SITTING,76,mmHg,76,76,mmHg,,6,WEEK 6,2006-11-21,42
ABC,VS,ABC-03-003,6,DIABP,Diastolic Blood Pressure,SITTING,71,mmHg,71,71,mmHg,,8,WEEK 8,2006-12-06,57
ABC,VS,ABC-03-003,7,DIABP,Diastolic Blood Pressure,SITTING,65,mmHg,65,65,mmHg,,12,WEEK 12,2007-01-03,85
ABC,VS,ABC-03-003,8,DIABP,Diastolic Blood Pressure,SITTING,64,mmHg,64,64,mmHg,,16,WEEK 16,2007-01-31,113
ABC,VS,ABC-03-003,9,HEIGHT,Height,,176,cm,176,176,cm,Y,0,SCREENING,2006-09-27,-14
ABC,VS,ABC-03-003,10,PULSE,Pulse Rate,,65,BEATS/MIN,65,65,BEATS/MIN,,0,SCREENING,2006-09-27,-14
ABC,VS,ABC-03-003,11,PULSE,Pulse Rate,,68,BEATS/MIN,68,68,BEATS/MIN,Y,1,DAY 1,2006-10-11,1
ABC,VS,ABC-03-003,12,PULSE,Pulse Rate,,66,BEATS/MIN,66,66,BEATS/MIN,,2,WEEK 2,2006-10-25,15
ABC,VS,ABC-03-003,13,PULSE,Pulse Rate,,55,BEATS/MIN,55,55,BEATS/MIN,,4,WEEK 4,2006-11-08,29
ABC,VS,ABC-03-003,14,PULSE,Pulse Rate,,63,BEATS/MIN,63,63,BEATS/MIN,,6,WEEK 6,2006-11-21,42
ABC,VS,ABC-03-003,15,PULSE,Pulse Rate,,61,BEATS/MIN,61,61,BEATS/MIN,,8,WEEK 8,2006-12-06,57
ABC,VS,ABC-03-003,16,PULSE,Pulse Rate,,63,BEATS/MIN,63,63,BEATS/MIN,,12,WEEK 12,2007-01-03,85
ABC,VS,ABC-03-003,17,PULSE,Pulse Rate,,70,BEATS/MIN,70,70,BEATS/MIN,,16,WEEK 16,2007-01-31,113
ABC,VS,ABC-03-003,18,RESP,Respiratory Rate,,18,BREATHS/MIN,18,18,BREATHS/MIN,,0,SCREENING,2006-09-27,-14
ABC,VS,ABC-03-003,19,RESP,Respiratory Rate,,18,BREATHS/MIN,18,18,BREATHS/MIN,Y,1,DAY 1,2006-10-11,1
ABC,VS,ABC-03-003,20,RESP,Respiratory Rate,,18,BREATHS/MIN,18,18,BREATHS/MIN,,2,WEEK 2,2006-10-25,15
ABC,VS,ABC-03-003,21,RESP,Respiratory Rate,,16,BREATHS/MIN,16,16,BREATHS/MIN,,4,WEEK 4,2006-11-08,29
ABC,VS,ABC-03-003,22,RESP,Respiratory Rate,,18,BREATHS/MIN,18,18,BREATHS/MIN,,6,WEEK 6,2006-11-21,42
ABC,VS,ABC-03-003,23,RESP,Respiratory Rate,,16,BREATHS/MIN,16,16,BREATHS/MIN,,8,WEEK 8,2006-12-06,57
ABC,VS,ABC-03-003,24,RESP,Respiratory Rate,,16,BREATHS/MIN,16,16,BREATHS/MIN,,12,WEEK 12,2007-01-03,85
ABC,VS,ABC-03-003,25,RESP,Respiratory Rate,,16,BREATHS/MIN,16,16,BREATHS/MIN,,16,WEEK 16,2007-01-31,113
ABC,VS,ABC-03-003,26,SYSBP,Systolic Blood Pressure,SITTING,155,mmHg,155,155,mmHg,,0,SCREENING,2006-09-27,-14
ABC,VS,ABC-03-003,27,SYSBP,Systolic Blood Pressure,SITTING,137,mmHg,137,137,mmHg,Y,1,DAY 1,2006-10-11,1
ABC,VS,ABC-03-003,28,SYSBP,Systolic Blood Pressure,SITTING,133,mmHg,133,133,mmHg,,2,WEEK 2,2006-10-25,15
ABC,VS,ABC-03-003,29,SYSBP,Systolic Blood Pressure,SITTING,113,mmHg,113,113,mmHg,,4,WEEK 4,2006-11-08,29
ABC,VS,ABC-03-003,30,SYSBP,Systolic Blood Pressure,SITTING,150,mmHg,150,150,mmHg,,6,WEEK 6,2006-11-21,42
ABC,VS,ABC-03-003,31,SYSBP,Systolic Blood Pressure,SITTING,131,mmHg,131,131,mmHg,,8,WEEK 8,2006-12-06,57
ABC,VS,ABC-03-003,32,SYSBP,Systolic Blood Pressure,SITTING,132,mmHg,132,132,mmHg,,12,WEEK 12,2007-01-03,85
ABC,VS,ABC-03-003,33,SYSBP,Systolic Blood Pressure,SITTING,134,mmHg,134,134,mmHg,,16,WEEK 16,2007-01-31,113
ABC,VS,ABC-03-003,34,TEMP,Temperature,,36.5,C,36.5,36.5,C,,0,SCREENING,2006-09-27,-14
ABC,VS,ABC-03-003,35,TEMP,Temperature,,36,C,36,36,C,Y,1,DAY 1,2006-10-11,1
ABC,VS,ABC-03-003,36,TEMP,Temperature,,36.2,C,36.2,36.2,C,,2,WEEK 2,2006-10-25,15
ABC,VS,ABC-03-003,37,TEMP,Temperature,,36.2,C,36.2,36.2,C,,4,WEEK 4,2006-11-08,29
ABC,VS,ABC-03-003,38,TEMP,Temperature,,36,C,36,36,C,,6,WEEK 6,2006-11-21,42
ABC,VS,ABC-03-003,39,TEMP,Temperature,,36,C,36,36,C,,8,WEEK 8,2006-12-06,57
ABC,VS,ABC-03-003,40,TEMP,Temperature,,36,C,36,36,C,,12,WEEK 12,2007-01-03,85
ABC,VS,ABC-03-003,41,TEMP,Temperature,,36.2,C,36.2,36.2,C,,16,WEEK 16,2007-01-31,113
ABC,VS,ABC-03-003,42,WEIGHT,Weight,,88,kg,88,88,kg,Y,0,SCREENING,2006-09-27,-14
ABC,VS,ABC-03-004,1,DIABP,Diastolic Blood Pressure,SITTING,80,mmHg,80,80,mmHg,,0,SCREENING,2006-09-27,-15
ABC,VS,ABC-03-004,2,DIABP,Diastolic Blood Pressure,SITTING,86,mmHg,86,86,mmHg,Y,1,DAY 1,2006-10-12,1
ABC,VS,ABC-03-004,3,DIABP,Diastolic Blood Pressure,SITTING,82,mmHg,82,82,mmHg,,2,WEEK 2,2006-10-26,15
ABC,VS,ABC-03-004,4,DIABP,Diastolic Blood Pressure,SITTING,82,mmHg,82,82,mmHg,,4,WEEK 4,2006-11-09,29
ABC,VS,ABC-03-004,5,DIABP,Diastolic Blood Pressure,SITTING,89,mmHg,89,89,mmHg,,6,WEEK 6,2006-11-21,41
ABC,VS,ABC-03-004,6,DIABP,Diastolic Blood Pressure,SITTING,80,mmHg,80,80,mmHg,,8,WEEK 8,2006-12-07,57
ABC,VS,ABC-03-004,7,DIABP,Diastolic Blood Pressure,SITTING,85,mmHg,85,85,mmHg,,12,WEEK 12,2007-01-04,85
ABC,VS,ABC-03-004,8,DIABP,Diastolic Blood Pressure,SITTING,86,mmHg,86,86,mmHg,,16,WEEK 16,2007-02-01,113
ABC,VS,ABC-03-004,9,HEIGHT,Height,,177.8,cm,177.8,177.8,cm,Y,0,SCREENING,2006-09-27,-15
ABC,VS,ABC-03-004,10,PULSE,Pulse Rate,,82,BEATS/MIN,82,82,BEATS/MIN,,0,SCREENING,2006-09-27,-15
ABC,VS,ABC-03-004,11,PULSE,Pulse Rate,,95,BEATS/MIN,95,95,BEATS/MIN,Y,1,DAY 1,2006-10-12,1
ABC,VS,ABC-03-004,12,PULSE,Pulse Rate,,102,BEATS/MIN,102,102,BEATS/MIN,,2,WEEK 2,2006-10-26,15
ABC,VS,ABC-03-004,13,PULSE,Pulse Rate,,109,BEATS/MIN,109,109,BEATS/MIN,,4,WEEK 4,2006-11-09,29
ABC,VS,ABC-03-004,14,PULSE,Pulse Rate,,103,BEATS/MIN,103,103,BEATS/MIN,,6,WEEK 6,2006-11-21,41
ABC,VS,ABC-03-004,15,PULSE,Pulse Rate,,93,BEATS/MIN,93,93,BEATS/MIN,,8,WEEK 8,2006-12-07,57
ABC,VS,ABC-03-004,16,PULSE,Pulse Rate,,94,BEATS/MIN,94,94,BEATS/MIN,,12,WEEK 12,2007-01-04,85
ABC,VS,ABC-03-004,17,PULSE,Pulse Rate,,86,BEATS/MIN,86,86,BEATS/MIN,,16,WEEK 16,2007-02-01,113
ABC,VS,ABC-03-004,18,RESP,Respiratory Rate,,16,BREATHS/MIN,16,16,BREATHS/MIN,,0,SCREENING,2006-09-27,-15
ABC,VS,ABC-03-004,19,RESP,Respiratory Rate,,16,BREATHS/MIN,16,16,BREATHS/MIN,Y,1,DAY 1,2006-10-12,1
ABC,VS,ABC-03-004,20,RESP,Respiratory Rate,,16,BREATHS/MIN,16,16,BREATHS/MIN,,2,WEEK 2,2006-10-26,15
ABC,VS,ABC-03-004,21,RESP,Respiratory Rate,,16,BREATHS/MIN,16,16,BREATHS/MIN,,4,WEEK 4,2006-11-09,29
ABC,VS,ABC-03-004,22,RESP,Respiratory Rate,,18,BREATHS/MIN,18,18,BREATHS/MIN,,6,WEEK 6,2006-11-21,41
ABC,VS,ABC-03-004,23,RESP,Respiratory Rate,,16,BREATHS/MIN,16,16,BREATHS/MIN,,8,WEEK 8,2006-12-07,57
ABC,VS,ABC-03-004,24,RESP,Respiratory Rate,,16,BREATHS/MIN,16,16,BREATHS/MIN,,12,WEEK 12,2007-01-04,85
ABC,VS,ABC-03-004,25,RESP,Respiratory Rate,,16,BREATHS/MIN,16,16,BREATHS/MIN,,16,WEEK 16,2007-02-01,113
ABC,VS,ABC-03-004,26,SYSBP,Systolic Blood Pressure,SITTING,135,mmHg,135,135,mmHg,,0,SCREENING,2006-09-27,-15
ABC,VS,ABC-03-004,27,SYSBP,Systolic Blood Pressure,SITTING,145,mmHg,145,145,mmHg,Y,1,DAY 1,2006-10-12,1
ABC,VS,ABC-03-004,28,SYSBP,Systolic Blood Pressure,SITTING,146,mmHg,146,146,mmHg,,2,WEEK 2,2006-10-26,15
ABC,VS,ABC-03-004,29,SYSBP,Systolic Blood Pressure,SITTING,134,mmHg,134,134,mmHg,,4,WEEK 4,2006-11-09,29
ABC,VS,ABC-03-004,30,SYSBP,Systolic Blood Pressure,SITTING,154,mmHg,154,154,mmHg,,6,WEEK 6,2006-11-21,41
ABC,VS,ABC-03-004,31,SYSBP,Systolic Blood Pressure,SITTING,140,mmHg,140,140,mmHg,,8,WEEK 8,2006-12-07,57
ABC,VS,ABC-03-004,32,SYSBP,Systolic Blood Pressure,SITTING,125,mmHg,125,125,mmHg,,12,WEEK 12,2007-01-04,85
ABC,VS,ABC-03-004,33,SYSBP,Systolic Blood Pressure,SITTING,112,mmHg,112,112,mmHg,,16,WEEK 16,2007-02-01,113
ABC,VS,ABC-03-004,34,TEMP,Temperature,,36.8,C,36.8,36.8,C,,0,SCREENING,2006-09-27,-15
ABC,VS,ABC-03-004,35,TEMP,Temperature,,36.9,C,36.9,36.9,C,Y,1,DAY 1,2006-10-12,1
ABC,VS,ABC-03-004,36,TEMP,Temperature,,37.1,C,37.1,37.1,C,,2,WEEK 2,2006-10-26,15
ABC,VS,ABC-03-004,37,TEMP,Temperature,,37.1,C,37.1,37.1,C,,4,WEEK 4,2006-11-09,29
ABC,VS,ABC-03-004,38,TEMP,Temperature,,36.5,C,36.5,36.5,C,,6,WEEK 6,2006-11-21,41
ABC,VS,ABC-03-004,39,TEMP,Temperature,,36.3,C,36.3,36.3,C,,8,WEEK 8,2006-12-07,57
ABC,VS,ABC-03-004,40,TEMP,Temperature,,36.2,C,36.2,36.2,C,,12,WEEK 12,2007-01-04,85
ABC,VS,ABC-03-004,41,TEMP,Temperature,,36.9,C,36.9,36.9,C,,16,WEEK 16,2007-02-01,113
ABC,VS,ABC-03-004,42,WEIGHT,Weight,,110.2,kg,110.2,110.2,kg,Y,0,SCREENING,2006-09-27,-15
ABC,VS,ABC-03-005,1,DIABP,Diastolic Blood Pressure,SITTING,70,mmHg,70,70,mmHg,,0,SCREENING,2006-09-27,-15
ABC,VS,ABC-03-005,2,DIABP,Diastolic Blood Pressure,SITTING,61,mmHg,61,61,mmHg,Y,1,DAY 1,2006-10-12,1
ABC,VS,ABC-03-005,3,HEIGHT,Height,,168.9,cm,168.9,168.9,cm,Y,0,SCREENING,2006-09-27,-15
ABC,VS,ABC-03-005,4,PULSE,Pulse Rate,,76,BEATS/MIN,76,76,BEATS/MIN,,0,SCREENING,2006-09-27,-15
ABC,VS,ABC-03-005,5,PULSE,Pulse Rate,,86,BEATS/MIN,86,86,BEATS/MIN,Y,1,DAY 1,2006-10-12,1
ABC,VS,ABC-03-005,6,RESP,Respiratory Rate,,18,BREATHS/MIN,18,18,BREATHS/MIN,,0,SCREENING,2006-09-27,-15
ABC,VS,ABC-03-005,7,RESP,Respiratory Rate,,22,BREATHS/MIN,22,22,BREATHS/MIN,Y,1,DAY 1,2006-10-12,1
ABC,VS,ABC-03-005,8,SYSBP,Systolic Blood Pressure,SITTING,134,mmHg,134,134,mmHg,,0,SCREENING,2006-09-27,-15
ABC,VS,ABC-03-005,9,SYSBP,Systolic Blood Pressure,SITTING,135,mmHg,135,135,mmHg,Y,1,DAY 1,2006-10-12,1
ABC,VS,ABC-03-005,10,TEMP,Temperature,,36.3,C,36.3,36.3,C,,0,SCREENING,2006-09-27,-15
ABC,VS,ABC-03-005,11,TEMP,Temperature,,36.6,C,36.6,36.6,C,Y,1,DAY 1,2006-10-12,1
ABC,VS,ABC-03-005,12,WEIGHT,Weight,,53.5,kg,53.5,53.5,kg,Y,0,SCREENING,2006-09-27,-15
ABC,VS,ABC-03-006,1,DIABP,Diastolic Blood Pressure,SITTING,72,mmHg,72,72,mmHg,,0,SCREENING,2006-10-18,-7
ABC,VS,ABC-03-006,2,DIABP,Diastolic Blood Pressure,SITTING,70,mmHg,70,70,mmHg,Y,1,DAY 1,2006-10-25,1
ABC,VS,ABC-03-006,3,DIABP,Diastolic Blood Pressure,SITTING,72,mmHg,72,72,mmHg,,2,WEEK 2,2006-11-06,13
ABC,VS,ABC-03-006,4,DIABP,Diastolic Blood Pressure,SITTING,78,mmHg,78,78,mmHg,,4,WEEK 4,2006-11-20,27
ABC,VS,ABC-03-006,5,DIABP,Diastolic Blood Pressure,SITTING,71,mmHg,71,71,mmHg,,6,WEEK 6,2006-12-06,43
ABC,VS,ABC-03-006,6,DIABP,Diastolic Blood Pressure,SITTING,76,mmHg,76,76,mmHg,,8,WEEK 8,2006-12-20,57
ABC,VS,ABC-03-006,7,DIABP,Diastolic Blood Pressure,SITTING,75,mmHg,75,75,mmHg,,12,WEEK 12,2007-01-17,85
ABC,VS,ABC-03-006,8,DIABP,Diastolic Blood Pressure,SITTING,74,mmHg,74,74,mmHg,,16,WEEK 16,2007-02-15,114
ABC,VS,ABC-03-006,9,HEIGHT,Height,,173.9,cm,173.9,173.9,cm,Y,0,SCREENING,2006-10-18,-7
ABC,VS,ABC-03-006,10,PULSE,Pulse Rate,,62,BEATS/MIN,62,62,BEATS/MIN,,0,SCREENING,2006-10-18,-7
ABC,VS,ABC-03-006,11,PULSE,Pulse Rate,,66,BEATS/MIN,66,66,BEATS/MIN,Y,1,DAY 1,2006-10-25,1
ABC,VS,ABC-03-006,12,PULSE,Pulse Rate,,68,BEATS/MIN,68,68,BEATS/MIN,,2,WEEK 2,2006-11-06,13
ABC,VS,ABC-03-006,13,PULSE,Pulse Rate,,80,BEATS/MIN,80,80,BEATS/MIN,,4,WEEK 4,2006-11-20,27
ABC,VS,ABC-03-006,14,PULSE,Pulse Rate,,71,BEATS/MIN,71,71,BEATS/MIN,,6,WEEK 6,2006-12-06,43
ABC,VS,ABC-03-006,15,PULSE,Pulse Rate,,70,BEATS/MIN,70,70,BEATS/MIN,,8,WEEK 8,2006-12-20,57
ABC,VS,ABC-03-006,16,PULSE,Pulse Rate,,71,BEATS/MIN,71,71,BEATS/MIN,,12,WEEK 12,2007-01-17,85
ABC,VS,ABC-03-006,17,PULSE,Pulse Rate,,84,BEATS/MIN,84,84,BEATS/MIN,,16,WEEK 16,2007-02-15,114
ABC,VS,ABC-03-006,18,RESP,Respiratory Rate,,14,BREATHS/MIN,14,14,BREATHS/MIN,,0,SCREENING,2006-10-18,-7
ABC,VS,ABC-03-006,19,RESP,Respiratory Rate,,16,BREATHS/MIN,16,16,BREATHS/MIN,Y,1,DAY 1,2006-10-25,1
ABC,VS,ABC-03-006,20,RESP,Respiratory Rate,,12,BREATHS/MIN,12,12,BREATHS/MIN,,2,WEEK 2,2006-11-06,13
ABC,VS,ABC-03-006,21,RESP,Respiratory Rate,,16,BREATHS/MIN,16,16,BREATHS/MIN,,4,WEEK 4,2006-11-20,27
ABC,VS,ABC-03-006,22,RESP,Respiratory Rate,,16,BREATHS/MIN,16,16,BREATHS/MIN,,6,WEEK 6,2006-12-06,43
ABC,VS,ABC-03-006,23,RESP,Respiratory Rate,,16,BREATHS/MIN,16,16,BREATHS/MIN,,8,WEEK 8,2006-12-20,57
ABC,VS,ABC-03-006,24,RESP,Respiratory Rate,,16,BREATHS/MIN,16,16,BREATHS/MIN,,12,WEEK 12,2007-01-17,85
ABC,VS,ABC-03-006,25,RESP,Respiratory Rate,,16,BREATHS/MIN,16,16,BREATHS/MIN,,16,WEEK 16,2007-02-15,114
ABC,VS,ABC-03-006,26,SYSBP,Systolic Blood Pressure,SITTING,117,mmHg,117,117,mmHg,,0,SCREENING,2006-10-18,-7
ABC,VS,ABC-03-006,27,SYSBP,Systolic Blood Pressure,SITTING,129,mmHg,129,129,mmHg,Y,1,DAY 1,2006-10-25,1
ABC,VS,ABC-03-006,28,SYSBP,Systolic Blood Pressure,SITTING,117,mmHg,117,117,mmHg,,2,WEEK 2,2006-11-06,13
ABC,VS,ABC-03-006,29,SYSBP,Systolic Blood Pressure,SITTING,143,mmHg,143,143,mmHg,,4,WEEK 4,2006-11-20,27
ABC,VS,ABC-03-006,30,SYSBP,Systolic Blood Pressure,SITTING,142,mmHg,142,142,mmHg,,6,WEEK 6,2006-12-06,43
ABC,VS,ABC-03-006,31,SYSBP,Systolic Blood Pressure,SITTING,122,mmHg,122,122,mmHg,,8,WEEK 8,2006-12-20,57
ABC,VS,ABC-03-006,32,SYSBP,Systolic Blood Pressure,SITTING,126,mmHg,126,126,mmHg,,12,WEEK 12,2007-01-17,85
ABC,VS,ABC-03-006,33,SYSBP,Systolic Blood Pressure,SITTING,143,mmHg,143,143,mmHg,,16,WEEK 16,2007-02-15,114
ABC,VS,ABC-03-006,34,TEMP,Temperature,,36.9,C,36.9,36.9,C,,0,SCREENING,2006-10-18,-7
ABC,VS,ABC-03-006,35,TEMP,Temperature,,36.6,C,36.6,36.6,C,Y,1,DAY 1,2006-10-25,1
ABC,VS,ABC-03-006,36,TEMP,Temperature,,36.6,C,36.6,36.6,C,,2,WEEK 2,2006-11-06,13
ABC,VS,ABC-03-006,37,TEMP,Temperature,,36.5,C,36.5,36.5,C,,4,WEEK 4,2006-11-20,27
ABC,VS,ABC-03-006,38,TEMP,Temperature,,36.1,C,36.1,36.1,C,,6,WEEK 6,2006-12-06,43
ABC,VS,ABC-03-006,39,TEMP,Temperature,,36.6,C,36.6,36.6,C,,8,WEEK 8,2006-12-20,57
ABC,VS,ABC-03-006,40,TEMP,Temperature,,36.3,C,36.3,36.3,C,,12,WEEK 12,2007-01-17,85
ABC,VS,ABC-03-006,41,TEMP,Temperature,,36.7,C,36.7,36.7,C,,16,WEEK 16,2007-02-15,114
ABC,VS,ABC-03-006,42,WEIGHT,Weight,,80.9,kg,80.9,80.9,kg,Y,0,SCREENING,2006-10-18,-7
ABC,VS,ABC-03-007,1,DIABP,Diastolic Blood Pressure,SITTING,62,mmHg,62,62,mmHg,,0,SCREENING,2006-10-27,-4
ABC,VS,ABC-03-007,2,DIABP,Diastolic Blood Pressure,SITTING,66,mmHg,66,66,mmHg,Y,1,DAY 1,2006-10-31,1
ABC,VS,ABC-03-007,3,DIABP,Diastolic Blood Pressure,SITTING,69,mmHg,69,69,mmHg,,2,WEEK 2,2006-11-15,16
ABC,VS,ABC-03-007,4,DIABP,Diastolic Blood Pressure,SITTING,60,mmHg,60,60,mmHg,,4,WEEK 4,2006-11-28,29
ABC,VS,ABC-03-007,5,DIABP,Diastolic Blood Pressure,SITTING,59,mmHg,59,59,mmHg,,6,WEEK 6,2006-12-12,43
ABC,VS,ABC-03-007,6,DIABP,Diastolic Blood Pressure,SITTING,70,mmHg,70,70,mmHg,,8,WEEK 8,2006-12-27,58
ABC,VS,ABC-03-007,7,DIABP,Diastolic Blood Pressure,SITTING,79,mmHg,79,79,mmHg,,12,WEEK 12,2007-01-23,85
ABC,VS,ABC-03-007,8,DIABP,Diastolic Blood Pressure,SITTING,66,mmHg,66,66,mmHg,,16,WEEK 16,2007-02-20,113
ABC,VS,ABC-03-007,9,HEIGHT,Height,,163,cm,163,163,cm,Y,0,SCREENING,2006-10-27,-4
ABC,VS,ABC-03-007,10,PULSE,Pulse Rate,,70,BEATS/MIN,70,70,BEATS/MIN,,0,SCREENING,2006-10-27,-4
ABC,VS,ABC-03-007,11,PULSE,Pulse Rate,,81,BEATS/MIN,81,81,BEATS/MIN,Y,1,DAY 1,2006-10-31,1
ABC,VS,ABC-03-007,12,PULSE,Pulse Rate,,76,BEATS/MIN,76,76,BEATS/MIN,,2,WEEK 2,2006-11-15,16
ABC,VS,ABC-03-007,13,PULSE,Pulse Rate,,83,BEATS/MIN,83,83,BEATS/MIN,,4,WEEK 4,2006-11-28,29
ABC,VS,ABC-03-007,14,PULSE,Pulse Rate,,77,BEATS/MIN,77,77,BEATS/MIN,,6,WEEK 6,2006-12-12,43
ABC,VS,ABC-03-007,15,PULSE,Pulse Rate,,109,BEATS/MIN,109,109,BEATS/MIN,,8,WEEK 8,2006-12-27,58
ABC,VS,ABC-03-007,16,PULSE,Pulse Rate,,86,BEATS/MIN,86,86,BEATS/MIN,,12,WEEK 12,2007-01-23,85
ABC,VS,ABC-03-007,17,PULSE,Pulse Rate,,83,BEATS/MIN,83,83,BEATS/MIN,,16,WEEK 16,2007-02-20,113
ABC,VS,ABC-03-007,18,RESP,Respiratory Rate,,16,BREATHS/MIN,16,16,BREATHS/MIN,,0,SCREENING,2006-10-27,-4
ABC,VS,ABC-03-007,19,RESP,Respiratory Rate,,16,BREATHS/MIN,16,16,BREATHS/MIN,Y,1,DAY 1,2006-10-31,1
ABC,VS,ABC-03-007,20,RESP,Respiratory Rate,,16,BREATHS/MIN,16,16,BREATHS/MIN,,2,WEEK 2,2006-11-15,16
ABC,VS,ABC-03-007,21,RESP,Respiratory Rate,,18,BREATHS/MIN,18,18,BREATHS/MIN,,4,WEEK 4,2006-11-28,29
ABC,VS,ABC-03-007,22,RESP,Respiratory Rate,,16,BREATHS/MIN,16,16,BREATHS/MIN,,6,WEEK 6,2006-12-12,43
ABC,VS,ABC-03-007,23,RESP,Respiratory Rate,,16,BREATHS/MIN,16,16,BREATHS/MIN,,8,WEEK 8,2006-12-27,58
ABC,VS,ABC-03-007,24,RESP,Respiratory Rate,,16,BREATHS/MIN,16,16,BREATHS/MIN,,12,WEEK 12,2007-01-23,85
ABC,VS,ABC-03-007,25,RESP,Respiratory Rate,,16,BREATHS/MIN,16,16,BREATHS/MIN,,16,WEEK 16,2007-02-20,113
ABC,VS,ABC-03-007,26,SYSBP,Systolic Blood Pressure,SITTING,113,mmHg,113,113,mmHg,,0,SCREENING,2006-10-27,-4
ABC,VS,ABC-03-007,27,SYSBP,Systolic Blood Pressure,SITTING,121,mmHg,121,121,mmHg,Y,1,DAY 1,2006-10-31,1
ABC,VS,ABC-03-007,28,SYSBP,Systolic Blood Pressure,SITTING,125,mmHg,125,125,mmHg,,2,WEEK 2,2006-11-15,16
ABC,VS,ABC-03-007,29,SYSBP,Systolic Blood Pressure,SITTING,114,mmHg,114,114,mmHg,,4,WEEK 4,2006-11-28,29
ABC,VS,ABC-03-007,30,SYSBP,Systolic Blood Pressure,SITTING,104,mmHg,104,104,mmHg,,6,WEEK 6,2006-12-12,43
ABC,VS,ABC-03-007,31,SYSBP,Systolic Blood Pressure,SITTING,97,mmHg,97,97,mmHg,,8,WEEK 8,2006-12-27,58
ABC,VS,ABC-03-007,32,SYSBP,Systolic Blood Pressure,SITTING,117,mmHg,117,117,mmHg,,12,WEEK 12,2007-01-23,85
ABC,VS,ABC-03-007,33,SYSBP,Systolic Blood Pressure,SITTING,119,mmHg,119,119,mmHg,,16,WEEK 16,2007-02-20,113
ABC,VS,ABC-03-007,34,TEMP,Temperature,,36,C,36,36,C,,0,SCREENING,2006-10-27,-4
ABC,VS,ABC-03-007,35,TEMP,Temperature,,36.5,C,36.5,36.5,C,Y,1,DAY 1,2006-10-31,1
ABC,VS,ABC-03-007,36,TEMP,Temperature,,36.7,C,36.7,36.7,C,,2,WEEK 2,2006-11-15,16
ABC,VS,ABC-03-007,37,TEMP,Temperature,,36,C,36,36,C,,4,WEEK 4,2006-11-28,29
ABC,VS,ABC-03-007,38,TEMP,Temperature,,36,C,36,36,C,,6,WEEK 6,2006-12-12,43
ABC,VS,ABC-03-007,39,TEMP,Temperature,,36.6,C,36.6,36.6,C,,8,WEEK 8,2006-12-27,58
ABC,VS,ABC-03-007,40,TEMP,Temperature,,36.9,C,36.9,36.9,C,,12,WEEK 12,2007-01-23,85
ABC,VS,ABC-03-007,41,TEMP,Temperature,,36.3,C,36.3,36.3,C,,16,WEEK 16,2007-02-20,113
ABC,VS,ABC-03-007,42,WEIGHT,Weight,,75,kg,75,75,kg,Y,0,SCREENING,2006-10-27,-4
ABC,VS,ABC-03-008,1,DIABP,Diastolic Blood Pressure,SITTING,95,mmHg,95,95,mmHg,,0,SCREENING,2006-10-18,-15
ABC,VS,ABC-03-008,2,DIABP,Diastolic Blood Pressure,SITTING,90,mmHg,90,90,mmHg,Y,1,DAY 1,2006-11-02,1
ABC,VS,ABC-03-008,3,DIABP,Diastolic Blood Pressure,SITTING,81,mmHg,81,81,mmHg,,16,WEEK 16,2006-12-07,36
ABC,VS,ABC-03-008,4,DIABP,Diastolic Blood Pressure,SITTING,80,mmHg,80,80,mmHg,,20,END OF STUDY EARLY TERMINATION,2006-11-09,8
ABC,VS,ABC-03-008,5,HEIGHT,Height,,171.4,cm,171.4,171.4,cm,Y,0,SCREENING,2006-10-18,-15
ABC,VS,ABC-03-008,6,PULSE,Pulse Rate,,97,BEATS/MIN,97,97,BEATS/MIN,,0,SCREENING,2006-10-18,-15
ABC,VS,ABC-03-008,7,PULSE,Pulse Rate,,61,BEATS/MIN,61,61,BEATS/MIN,Y,1,DAY 1,2006-11-02,1
ABC,VS,ABC-03-008,8,PULSE,Pulse Rate,,78,BEATS/MIN,78,78,BEATS/MIN,,16,WEEK 16,2006-12-07,36
ABC,VS,ABC-03-008,9,PULSE,Pulse Rate,,75,BEATS/MIN,75,75,BEATS/MIN,,20,END OF STUDY EARLY TERMINATION,2006-11-09,8
ABC,VS,ABC-03-008,10,RESP,Respiratory Rate,,16,BREATHS/MIN,16,16,BREATHS/MIN,,0,SCREENING,2006-10-18,-15
ABC,VS,ABC-03-008,11,RESP,Respiratory Rate,,18,BREATHS/MIN,18,18,BREATHS/MIN,Y,1,DAY 1,2006-11-02,1
ABC,VS,ABC-03-008,12,RESP,Respiratory Rate,,16,BREATHS/MIN,16,16,BREATHS/MIN,,16,WEEK 16,2006-12-07,36
ABC,VS,ABC-03-008,13,RESP,Respiratory Rate,,16,BREATHS/MIN,16,16,BREATHS/MIN,,20,END OF STUDY EARLY TERMINATION,2006-11-09,8
ABC,VS,ABC-03-008,14,SYSBP,Systolic Blood Pressure,SITTING,149,mmHg,149,149,mmHg,,0,SCREENING,2006-10-18,-15
ABC,VS,ABC-03-008,15,SYSBP,Systolic Blood Pressure,SITTING,156,mmHg,156,156,mmHg,Y,1,DAY 1,2006-11-02,1
ABC,VS,ABC-03-008,16,SYSBP,Systolic Blood Pressure,SITTING,140,mmHg,140,140,mmHg,,16,WEEK 16,2006-12-07,36
ABC,VS,ABC-03-008,17,SYSBP,Systolic Blood Pressure,SITTING,136,mmHg,136,136,mmHg,,20,END OF STUDY EARLY TERMINATION,2006-11-09,8
ABC,VS,ABC-03-008,18,TEMP,Temperature,,37.1,C,37.1,37.1,C,,0,SCREENING,2006-10-18,-15
ABC,VS,ABC-03-008,19,TEMP,Temperature,,36,C,36,36,C,Y,1,DAY 1,2006-11-02,1
ABC,VS,ABC-03-008,20,TEMP,Temperature,,36.1,C,36.1,36.1,C,,16,WEEK 16,2006-12-07,36
ABC,VS,ABC-03-008,21,TEMP,Temperature,,37.1,C,37.1,37.1,C,,20,END OF STUDY EARLY TERMINATION,2006-11-09,8
ABC,VS,ABC-03-008,22,WEIGHT,Weight,,114.3,kg,114.3,114.3,kg,Y,0,SCREENING,2006-10-18,-15
ABC,VS,ABC-03-089,1,DIABP,Diastolic Blood Pressure,SITTING,78,mmHg,78,78,mmHg,,0,SCREENING,2006-11-15,-6
ABC,VS,ABC-03-089,2,DIABP,Diastolic Blood Pressure,SITTING,73,mmHg,73,73,mmHg,Y,1,DAY 1,2006-11-21,1
ABC,VS,ABC-03-089,3,DIABP,Diastolic Blood Pressure,SITTING,68,mmHg,68,68,mmHg,,2,WEEK 2,2006-12-05,15
ABC,VS,ABC-03-089,4,DIABP,Diastolic Blood Pressure,SITTING,64,mmHg,64,64,mmHg,,4,WEEK 4,2006-12-19,29
ABC,VS,ABC-03-089,5,DIABP,Diastolic Blood Pressure,SITTING,64,mmHg,64,64,mmHg,,6,WEEK 6,2007-01-02,43
ABC,VS,ABC-03-089,6,DIABP,Diastolic Blood Pressure,SITTING,79,mmHg,79,79,mmHg,,8,WEEK 8,2007-01-16,57
ABC,VS,ABC-03-089,7,DIABP,Diastolic Blood Pressure,SITTING,67,mmHg,67,67,mmHg,,12,WEEK 12,2007-02-13,85
ABC,VS,ABC-03-089,8,DIABP,Diastolic Blood Pressure,SITTING,71,mmHg,71,71,mmHg,,16,WEEK 16,2007-03-13,113
ABC,VS,ABC-03-089,9,HEIGHT,Height,,152,cm,152,152,cm,Y,0,SCREENING,2006-11-15,-6
ABC,VS,ABC-03-089,10,PULSE,Pulse Rate,,72,BEATS/MIN,72,72,BEATS/MIN,,0,SCREENING,2006-11-15,-6
ABC,VS,ABC-03-089,11,PULSE,Pulse Rate,,77,BEATS/MIN,77,77,BEATS/MIN,Y,1,DAY 1,2006-11-21,1
ABC,VS,ABC-03-089,12,PULSE,Pulse Rate,,84,BEATS/MIN,84,84,BEATS/MIN,,2,WEEK 2,2006-12-05,15
ABC,VS,ABC-03-089,13,PULSE,Pulse Rate,,80,BEATS/MIN,80,80,BEATS/MIN,,4,WEEK 4,2006-12-19,29
ABC,VS,ABC-03-089,14,PULSE,Pulse Rate,,72,BEATS/MIN,72,72,BEATS/MIN,,6,WEEK 6,2007-01-02,43
ABC,VS,ABC-03-089,15,PULSE,Pulse Rate,,90,BEATS/MIN,90,90,BEATS/MIN,,8,WEEK 8,2007-01-16,57
ABC,VS,ABC-03-089,16,PULSE,Pulse Rate,,77,BEATS/MIN,77,77,BEATS/MIN,,12,WEEK 12,2007-02-13,85
ABC,VS,ABC-03-089,17,PULSE,Pulse Rate,,78,BEATS/MIN,78,78,BEATS/MIN,,16,WEEK 16,2007-03-13,113
ABC,VS,ABC-03-089,18,RESP,Respiratory Rate,,16,BREATHS/MIN,16,16,BREATHS/MIN,,0,SCREENING,2006-11-15,-6
ABC,VS,ABC-03-089,19,RESP,Respiratory Rate,,16,BREATHS/MIN,16,16,BREATHS/MIN,Y,1,DAY 1,2006-11-21,1
ABC,VS,ABC-03-089,20,RESP,Respiratory Rate,,16,BREATHS/MIN,16,16,BREATHS/MIN,,2,WEEK 2,2006-12-05,15
ABC,VS,ABC-03-089,21,RESP,Respiratory Rate,,18,BREATHS/MIN,18,18,BREATHS/MIN,,4,WEEK 4,2006-12-19,29
ABC,VS,ABC-03-089,22,RESP,Respiratory Rate,,16,BREATHS/MIN,16,16,BREATHS/MIN,,6,WEEK 6,2007-01-02,43
ABC,VS,ABC-03-089,23,RESP,Respiratory Rate,,16,BREATHS/MIN,16,16,BREATHS/MIN,,8,WEEK 8,2007-01-16,57
ABC,VS,ABC-03-089,24,RESP,Respiratory Rate,,18,BREATHS/MIN,18,18,BREATHS/MIN,,12,WEEK 12,2007-02-13,85
ABC,VS,ABC-03-089,25,RESP,Respiratory Rate,,18,BREATHS/MIN,18,18,BREATHS/MIN,,16,WEEK 16,2007-03-13,113
ABC,VS,ABC-03-089,26,SYSBP,Systolic Blood Pressure,SITTING,116,mmHg,116,116,mmHg,,0,SCREENING,2006-11-15,-6
ABC,VS,ABC-03-089,27,SYSBP,Systolic Blood Pressure,SITTING,119,mmHg,119,119,mmHg,Y,1,DAY 1,2006-11-21,1
ABC,VS,ABC-03-089,28,SYSBP,Systolic Blood Pressure,SITTING,104,mmHg,104,104,mmHg,,2,WEEK 2,2006-12-05,15
ABC,VS,ABC-03-089,29,SYSBP,Systolic Blood Pressure,SITTING,116,mmHg,116,116,mmHg,,4,WEEK 4,2006-12-19,29
ABC,VS,ABC-03-089,30,SYSBP,Systolic Blood Pressure,SITTING,98,mmHg,98,98,mmHg,,6,WEEK 6,2007-01-02,43
ABC,VS,ABC-03-089,31,SYSBP,Systolic Blood Pressure,SITTING,113,mmHg,113,113,mmHg,,8,WEEK 8,2007-01-16,57
ABC,VS,ABC-03-089,32,SYSBP,Systolic Blood Pressure,SITTING,102,mmHg,102,102,mmHg,,12,WEEK 12,2007-02-13,85
ABC,VS,ABC-03-089,33,SYSBP,Systolic Blood Pressure,SITTING,118,mmHg,118,118,mmHg,,16,WEEK 16,2007-03-13,113
ABC,VS,ABC-03-089,34,TEMP,Temperature,,36.6,C,36.6,36.6,C,,0,SCREENING,2006-11-15,-6
ABC,VS,ABC-03-089,35,TEMP,Temperature,,36.2,C,36.2,36.2,C,Y,1,DAY 1,2006-11-21,1
ABC,VS,ABC-03-089,36,TEMP,Temperature,,36.1,C,36.1,36.1,C,,2,WEEK 2,2006-12-05,15
ABC,VS,ABC-03-089,37,TEMP,Temperature,,36.1,C,36.1,36.1,C,,4,WEEK 4,2006-12-19,29
ABC,VS,ABC-03-089,38,TEMP,Temperature,,36.2,C,36.2,36.2,C,,6,WEEK 6,2007-01-02,43
ABC,VS,ABC-03-089,39,TEMP,Temperature,,36.5,C,36.5,36.5,C,,8,WEEK 8,2007-01-16,57
ABC,VS,ABC-03-089,40,TEMP,Temperature,,36.4,C,36.4,36.4,C,,12,WEEK 12,2007-02-13,85
ABC,VS,ABC-03-089,41,TEMP,Temperature,,36.2,C,36.2,36.2,C,,16,WEEK 16,2007-03-13,113
ABC,VS,ABC-03-089,42,WEIGHT,Weight,,54.5,kg,54.5,54.5,kg,Y,0,SCREENING,2006-11-15,-6
ABC,VS,ABC-03-090,1,DIABP,Diastolic Blood Pressure,SITTING,81,mmHg,81,81,mmHg,,0,SCREENING,2006-11-30,-6
ABC,VS,ABC-03-090,2,DIABP,Diastolic Blood Pressure,SITTING,71,mmHg,71,71,mmHg,Y,1,DAY 1,2006-12-06,1
ABC,VS,ABC-03-090,3,DIABP,Diastolic Blood Pressure,SITTING,50,mmHg,50,50,mmHg,,2,WEEK 2,2006-12-20,15
ABC,VS,ABC-03-090,4,DIABP,Diastolic Blood Pressure,SITTING,71,mmHg,71,71,mmHg,,4,WEEK 4,2007-01-03,29
ABC,VS,ABC-03-090,5,DIABP,Diastolic Blood Pressure,SITTING,68,mmHg,68,68,mmHg,,6,WEEK 6,2007-01-17,43
ABC,VS,ABC-03-090,6,DIABP,Diastolic Blood Pressure,SITTING,64,mmHg,64,64,mmHg,,8,WEEK 8,2007-01-31,57
ABC,VS,ABC-03-090,7,DIABP,Diastolic Blood Pressure,SITTING,69,mmHg,69,69,mmHg,,12,WEEK 12,2007-02-28,85
ABC,VS,ABC-03-090,8,DIABP,Diastolic Blood Pressure,SITTING,71,mmHg,71,71,mmHg,,16,WEEK 16,2007-03-28,113
ABC,VS,ABC-03-090,9,HEIGHT,Height,,182.9,cm,182.9,182.9,cm,Y,0,SCREENING,2006-11-30,-6
ABC,VS,ABC-03-090,10,PULSE,Pulse Rate,,86,BEATS/MIN,86,86,BEATS/MIN,,0,SCREENING,2006-11-30,-6
ABC,VS,ABC-03-090,11,PULSE,Pulse Rate,,90,BEATS/MIN,90,90,BEATS/MIN,Y,1,DAY 1,2006-12-06,1
ABC,VS,ABC-03-090,12,PULSE,Pulse Rate,,90,BEATS/MIN,90,90,BEATS/MIN,,2,WEEK 2,2006-12-20,15
ABC,VS,ABC-03-090,13,PULSE,Pulse Rate,,74,BEATS/MIN,74,74,BEATS/MIN,,4,WEEK 4,2007-01-03,29
ABC,VS,ABC-03-090,14,PULSE,Pulse Rate,,83,BEATS/MIN,83,83,BEATS/MIN,,6,WEEK 6,2007-01-17,43
ABC,VS,ABC-03-090,15,PULSE,Pulse Rate,,86,BEATS/MIN,86,86,BEATS/MIN,,8,WEEK 8,2007-01-31,57
ABC,VS,ABC-03-090,16,PULSE,Pulse Rate,,89,BEATS/MIN,89,89,BEATS/MIN,,12,WEEK 12,2007-02-28,85
ABC,VS,ABC-03-090,17,PULSE,Pulse Rate,,89,BEATS/MIN,89,89,BEATS/MIN,,16,WEEK 16,2007-03-28,113
ABC,VS,ABC-03-090,18,RESP,Respiratory Rate,,18,BREATHS/MIN,18,18,BREATHS/MIN,,0,SCREENING,2006-11-30,-6
ABC,VS,ABC-03-090,19,RESP,Respiratory Rate,,18,BREATHS/MIN,18,18,BREATHS/MIN,Y,1,DAY 1,2006-12-06,1
ABC,VS,ABC-03-090,20,RESP,Respiratory Rate,,16,BREATHS/MIN,16,16,BREATHS/MIN,,2,WEEK 2,2006-12-20,15
ABC,VS,ABC-03-090,21,RESP,Respiratory Rate,,16,BREATHS/MIN,16,16,BREATHS/MIN,,4,WEEK 4,2007-01-03,29
ABC,VS,ABC-03-090,22,RESP,Respiratory Rate,,18,BREATHS/MIN,18,18,BREATHS/MIN,,6,WEEK 6,2007-01-17,43
ABC,VS,ABC-03-090,23,RESP,Respiratory Rate,,16,BREATHS/MIN,16,16,BREATHS/MIN,,8,WEEK 8,2007-01-31,57
ABC,VS,ABC-03-090,24,RESP,Respiratory Rate,,16,BREATHS/MIN,16,16,BREATHS/MIN,,12,WEEK 12,2007-02-28,85
ABC,VS,ABC-03-090,25,RESP,Respiratory Rate,,16,BREATHS/MIN,16,16,BREATHS/MIN,,16,WEEK 16,2007-03-28,113
ABC,VS,ABC-03-090,26,SYSBP,Systolic Blood Pressure,SITTING,149,mmHg,149,149,mmHg,,0,SCREENING,2006-11-30,-6
ABC,VS,ABC-03-090,27,SYSBP,Systolic Blood Pressure,SITTING,131,mmHg,131,131,mmHg,Y,1,DAY 1,2006-12-06,1
ABC,VS,ABC-03-090,28,SYSBP,Systolic Blood Pressure,SITTING,104,mmHg,104,104,mmHg,,2,WEEK 2,2006-12-20,15
ABC,VS,ABC-03-090,29,SYSBP,Systolic Blood Pressure,SITTING,148,mmHg,148,148,mmHg,,4,WEEK 4,2007-01-03,29
ABC,VS,ABC-03-090,30,SYSBP,Systolic Blood Pressure,SITTING,151,mmHg,151,151,mmHg,,6,WEEK 6,2007-01-17,43
ABC,VS,ABC-03-090,31,SYSBP,Systolic Blood Pressure,SITTING,136,mmHg,136,136,mmHg,,8,WEEK 8,2007-01-31,57
ABC,VS,ABC-03-090,32,SYSBP,Systolic Blood Pressure,SITTING,154,mmHg,154,154,mmHg,,12,WEEK 12,2007-02-28,85
ABC,VS,ABC-03-090,33,SYSBP,Systolic Blood Pressure,SITTING,125,mmHg,125,125,mmHg,,16,WEEK 16,2007-03-28,113
ABC,VS,ABC-03-090,34,TEMP,Temperature,,37,C,37,37,C,,0,SCREENING,2006-11-30,-6
ABC,VS,ABC-03-090,35,TEMP,Temperature,,36.1,C,36.1,36.1,C,Y,1,DAY 1,2006-12-06,1
ABC,VS,ABC-03-090,36,TEMP,Temperature,,36.8,C,36.8,36.8,C,,2,WEEK 2,2006-12-20,15
ABC,VS,ABC-03-090,37,TEMP,Temperature,,36.2,C,36.2,36.2,C,,4,WEEK 4,2007-01-03,29
ABC,VS,ABC-03-090,38,TEMP,Temperature,,36.5,C,36.5,36.5,C,,6,WEEK 6,2007-01-17,43
ABC,VS,ABC-03-090,39,TEMP,Temperature,,36.2,C,36.2,36.2,C,,8,WEEK 8,2007-01-31,57
ABC,VS,ABC-03-090,40,TEMP,Temperature,,36.5,C,36.5,36.5,C,,12,WEEK 12,2007-02-28,85
ABC,VS,ABC-03-090,41,TEMP,Temperature,,36.3,C,36.3,36.3,C,,16,WEEK 16,2007-03-28,113
ABC,VS,ABC-03-090,42,WEIGHT,Weight,,88.9,kg,88.9,88.9,kg,Y,0,SCREENING,2006-11-30,-6
ABC,VS,ABC-03-091,1,DIABP,Diastolic Blood Pressure,SITTING,86,mmHg,86,86,mmHg,,0,SCREENING,2006-12-11,-9
ABC,VS,ABC-03-091,2,DIABP,Diastolic Blood Pressure,SITTING,96,mmHg,96,96,mmHg,Y,1,DAY 1,2006-12-20,1
ABC,VS,ABC-03-091,3,DIABP,Diastolic Blood Pressure,SITTING,90,mmHg,90,90,mmHg,,2,WEEK 2,2007-01-03,15
ABC,VS,ABC-03-091,4,DIABP,Diastolic Blood Pressure,SITTING,91,mmHg,91,91,mmHg,,4,WEEK 4,2007-01-17,29
ABC,VS,ABC-03-091,5,DIABP,Diastolic Blood Pressure,SITTING,73,mmHg,73,73,mmHg,,6,WEEK 6,2007-01-31,43
ABC,VS,ABC-03-091,6,DIABP,Diastolic Blood Pressure,SITTING,85,mmHg,85,85,mmHg,,8,WEEK 8,2007-02-13,56
ABC,VS,ABC-03-091,7,DIABP,Diastolic Blood Pressure,SITTING,88,mmHg,88,88,mmHg,,12,WEEK 12,2007-03-13,84
ABC,VS,ABC-03-091,8,DIABP,Diastolic Blood Pressure,SITTING,79,mmHg,79,79,mmHg,,16,WEEK 16,2007-04-10,112
ABC,VS,ABC-03-091,9,HEIGHT,Height,,172.7,cm,172.7,172.7,cm,Y,0,SCREENING,2006-12-11,-9
ABC,VS,ABC-03-091,10,PULSE,Pulse Rate,,76,BEATS/MIN,76,76,BEATS/MIN,,0,SCREENING,2006-12-11,-9
ABC,VS,ABC-03-091,11,PULSE,Pulse Rate,,73,BEATS/MIN,73,73,BEATS/MIN,Y,1,DAY 1,2006-12-20,1
ABC,VS,ABC-03-091,12,PULSE,Pulse Rate,,94,BEATS/MIN,94,94,BEATS/MIN,,2,WEEK 2,2007-01-03,15
ABC,VS,ABC-03-091,13,PULSE,Pulse Rate,,74,BEATS/MIN,74,74,BEATS/MIN,,4,WEEK 4,2007-01-17,29
ABC,VS,ABC-03-091,14,PULSE,Pulse Rate,,78,BEATS/MIN,78,78,BEATS/MIN,,6,WEEK 6,2007-01-31,43
ABC,VS,ABC-03-091,15,PULSE,Pulse Rate,,76,BEATS/MIN,76,76,BEATS/MIN,,8,WEEK 8,2007-02-13,56
ABC,VS,ABC-03-091,16,PULSE,Pulse Rate,,82,BEATS/MIN,82,82,BEATS/MIN,,12,WEEK 12,2007-03-13,84
ABC,VS,ABC-03-091,17,PULSE,Pulse Rate,,86,BEATS/MIN,86,86,BEATS/MIN,,16,WEEK 16,2007-04-10,112
ABC,VS,ABC-03-091,18,RESP,Respiratory Rate,,16,BREATHS/MIN,16,16,BREATHS/MIN,,0,SCREENING,2006-12-11,-9
ABC,VS,ABC-03-091,19,RESP,Respiratory Rate,,16,BREATHS/MIN,16,16,BREATHS/MIN,Y,1,DAY 1,2006-12-20,1
ABC,VS,ABC-03-091,20,RESP,Respiratory Rate,,16,BREATHS/MIN,16,16,BREATHS/MIN,,2,WEEK 2,2007-01-03,15
ABC,VS,ABC-03-091,21,RESP,Respiratory Rate,,18,BREATHS/MIN,18,18,BREATHS/MIN,,4,WEEK 4,2007-01-17,29
ABC,VS,ABC-03-091,22,RESP,Respiratory Rate,,16,BREATHS/MIN,16,16,BREATHS/MIN,,6,WEEK 6,2007-01-31,43
ABC,VS,ABC-03-091,23,RESP,Respiratory Rate,,16,BREATHS/MIN,16,16,BREATHS/MIN,,8,WEEK 8,2007-02-13,56
ABC,VS,ABC-03-091,24,RESP,Respiratory Rate,,16,BREATHS/MIN,16,16,BREATHS/MIN,,12,WEEK 12,2007-03-13,84
ABC,VS,ABC-03-091,25,RESP,Respiratory Rate,,16,BREATHS/MIN,16,16,BREATHS/MIN,,16,WEEK 16,2007-04-10,112
ABC,VS,ABC-03-091,26,SYSBP,Systolic Blood Pressure,SITTING,185,mmHg,185,185,mmHg,,0,SCREENING,2006-12-11,-9
ABC,VS,ABC-03-091,27,SYSBP,Systolic Blood Pressure,SITTING,142,mmHg,142,142,mmHg,Y,1,DAY 1,2006-12-20,1
ABC,VS,ABC-03-091,28,SYSBP,Systolic Blood Pressure,SITTING,146,mmHg,146,146,mmHg,,2,WEEK 2,2007-01-03,15
ABC,VS,ABC-03-091,29,SYSBP,Systolic Blood Pressure,SITTING,145,mmHg,145,145,mmHg,,4,WEEK 4,2007-01-17,29
ABC,VS,ABC-03-091,30,SYSBP,Systolic Blood Pressure,SITTING,152,mmHg,152,152,mmHg,,6,WEEK 6,2007-01-31,43
ABC,VS,ABC-03-091,31,SYSBP,Systolic Blood Pressure,SITTING,169,mmHg,169,169,mmHg,,8,WEEK 8,2007-02-13,56
ABC,VS,ABC-03-091,32,SYSBP,Systolic Blood Pressure,SITTING,165,mmHg,165,165,mmHg,,12,WEEK 12,2007-03-13,84
ABC,VS,ABC-03-091,33,SYSBP,Systolic Blood Pressure,SITTING,169,mmHg,169,169,mmHg,,16,WEEK 16,2007-04-10,112
ABC,VS,ABC-03-091,34,TEMP,Temperature,,36,C,36,36,C,,0,SCREENING,2006-12-11,-9
ABC,VS,ABC-03-091,35,TEMP,Temperature,,36.4,C,36.4,36.4,C,Y,1,DAY 1,2006-12-20,1
ABC,VS,ABC-03-091,36,TEMP,Temperature,,36.2,C,36.2,36.2,C,,2,WEEK 2,2007-01-03,15
ABC,VS,ABC-03-091,37,TEMP,Temperature,,36.1,C,36.1,36.1,C,,4,WEEK 4,2007-01-17,29
ABC,VS,ABC-03-091,38,TEMP,Temperature,,36.7,C,36.7,36.7,C,,6,WEEK 6,2007-01-31,43
ABC,VS,ABC-03-091,39,TEMP,Temperature,,36.2,C,36.2,36.2,C,,8,WEEK 8,2007-02-13,56
ABC,VS,ABC-03-091,40,TEMP,Temperature,,36.2,C,36.2,36.2,C,,12,WEEK 12,2007-03-13,84
ABC,VS,ABC-03-091,41,TEMP,Temperature,,36.4,C,36.4,36.4,C,,16,WEEK 16,2007-04-10,112
ABC,VS,ABC-03-091,42,WEIGHT,Weight,,96.6,kg,96.6,96.6,kg,Y,0,SCREENING,2006-12-11,-9
ABC,VS,ABC-04-073,1,DIABP,Diastolic Blood Pressure,SITTING,70,mmHg,70,70,mmHg,,0,SCREENING,2006-10-10,-21
ABC,VS,ABC-04-073,2,DIABP,Diastolic Blood Pressure,SITTING,74,mmHg,74,74,mmHg,Y,1,DAY 1,2006-10-31,1
ABC,VS,ABC-04-073,3,DIABP,Diastolic Blood Pressure,SITTING,73,mmHg,73,73,mmHg,,2,WEEK 2,2006-11-14,15
ABC,VS,ABC-04-073,4,DIABP,Diastolic Blood Pressure,SITTING,75,mmHg,75,75,mmHg,,4,WEEK 4,2006-11-29,30
ABC,VS,ABC-04-073,5,DIABP,Diastolic Blood Pressure,SITTING,72,mmHg,72,72,mmHg,,6,WEEK 6,2006-12-13,44
ABC,VS,ABC-04-073,6,DIABP,Diastolic Blood Pressure,SITTING,78,mmHg,78,78,mmHg,,8,WEEK 8,2006-12-28,59
ABC,VS,ABC-04-073,7,DIABP,Diastolic Blood Pressure,SITTING,74,mmHg,74,74,mmHg,,12,WEEK 12,2007-01-25,87
ABC,VS,ABC-04-073,8,DIABP,Diastolic Blood Pressure,SITTING,76,mmHg,76,76,mmHg,,16,WEEK 16,2007-02-21,114
ABC,VS,ABC-04-073,9,HEIGHT,Height,,164.5,cm,164.5,164.5,cm,Y,0,SCREENING,2006-10-10,-21
ABC,VS,ABC-04-073,10,PULSE,Pulse Rate,,66,BEATS/MIN,66,66,BEATS/MIN,,0,SCREENING,2006-10-10,-21
ABC,VS,ABC-04-073,11,PULSE,Pulse Rate,,73,BEATS/MIN,73,73,BEATS/MIN,Y,1,DAY 1,2006-10-31,1
ABC,VS,ABC-04-073,12,PULSE,Pulse Rate,,66,BEATS/MIN,66,66,BEATS/MIN,,2,WEEK 2,2006-11-14,15
ABC,VS,ABC-04-073,13,PULSE,Pulse Rate,,73,BEATS/MIN,73,73,BEATS/MIN,,4,WEEK 4,2006-11-29,30
ABC,VS,ABC-04-073,14,PULSE,Pulse Rate,,64,BEATS/MIN,64,64,BEATS/MIN,,6,WEEK 6,2006-12-13,44
ABC,VS,ABC-04-073,15,PULSE,Pulse Rate,,72,BEATS/MIN,72,72,BEATS/MIN,,8,WEEK 8,2006-12-28,59
ABC,VS,ABC-04-073,16,PULSE,Pulse Rate,,63,BEATS/MIN,63,63,BEATS/MIN,,12,WEEK 12,2007-01-25,87
ABC,VS,ABC-04-073,17,PULSE,Pulse Rate,,70,BEATS/MIN,70,70,BEATS/MIN,,16,WEEK 16,2007-02-21,114
ABC,VS,ABC-04-073,18,RESP,Respiratory Rate,,16,BREATHS/MIN,16,16,BREATHS/MIN,,0,SCREENING,2006-10-10,-21
ABC,VS,ABC-04-073,19,RESP,Respiratory Rate,,16,BREATHS/MIN,16,16,BREATHS/MIN,Y,1,DAY 1,2006-10-31,1
ABC,VS,ABC-04-073,20,RESP,Respiratory Rate,,16,BREATHS/MIN,16,16,BREATHS/MIN,,2,WEEK 2,2006-11-14,15
ABC,VS,ABC-04-073,21,RESP,Respiratory Rate,,16,BREATHS/MIN,16,16,BREATHS/MIN,,4,WEEK 4,2006-11-29,30
ABC,VS,ABC-04-073,22,RESP,Respiratory Rate,,16,BREATHS/MIN,16,16,BREATHS/MIN,,6,WEEK 6,2006-12-13,44
ABC,VS,ABC-04-073,23,RESP,Respiratory Rate,,16,BREATHS/MIN,16,16,BREATHS/MIN,,8,WEEK 8,2006-12-28,59
ABC,VS,ABC-04-073,24,RESP,Respiratory Rate,,16,BREATHS/MIN,16,16,BREATHS/MIN,,12,WEEK 12,2007-01-25,87
ABC,VS,ABC-04-073,25,RESP,Respiratory Rate,,16,BREATHS/MIN,16,16,BREATHS/MIN,,16,WEEK 16,2007-02-21,114
ABC,VS,ABC-04-073,26,SYSBP,Systolic Blood Pressure,SITTING,114,mmHg,114,114,mmHg,,0,SCREENING,2006-10-10,-21
ABC,VS,ABC-04-073,27,SYSBP,Systolic Blood Pressure,SITTING,108,mmHg,108,108,mmHg,Y,1,DAY 1,2006-10-31,1
ABC,VS,ABC-04-073,28,SYSBP,Systolic Blood Pressure,SITTING,115,mmHg,115,115,mmHg,,2,WEEK 2,2006-11-14,15
ABC,VS,ABC-04-073,29,SYSBP,Systolic Blood Pressure,SITTING,122,mmHg,122,122,mmHg,,4,WEEK 4,2006-11-29,30
ABC,VS,ABC-04-073,30,SYSBP,Systolic Blood Pressure,SITTING,112,mmHg,112,112,mmHg,,6,WEEK 6,2006-12-13,44
ABC,VS,ABC-04-073,31,SYSBP,Systolic Blood Pressure,SITTING,112,mmHg,112,112,mmHg,,8,WEEK 8,2006-12-28,59
ABC,VS,ABC-04-073,32,SYSBP,Systolic Blood Pressure,SITTING,120,mmHg,120,120,mmHg,,12,WEEK 12,2007-01-25,87
ABC,VS,ABC-04-073,33,SYSBP,Systolic Blood Pressure,SITTING,120,mmHg,120,120,mmHg,,16,WEEK 16,2007-02-21,114
ABC,VS,ABC-04-073,34,TEMP,Temperature,,36.2,C,36.2,36.2,C,,0,SCREENING,2006-10-10,-21
ABC,VS,ABC-04-073,35,TEMP,Temperature,,36.4,C,36.4,36.4,C,Y,1,DAY 1,2006-10-31,1
ABC,VS,ABC-04-073,36,TEMP,Temperature,,36.7,C,36.7,36.7,C,,2,WEEK 2,2006-11-14,15
ABC,VS,ABC-04-073,37,TEMP,Temperature,,36.2,C,36.2,36.2,C,,4,WEEK 4,2006-11-29,30
ABC,VS,ABC-04-073,38,TEMP,Temperature,,36.2,C,36.2,36.2,C,,6,WEEK 6,2006-12-13,44
ABC,VS,ABC-04-073,39,TEMP,Temperature,,36.5,C,36.5,36.5,C,,8,WEEK 8,2006-12-28,59
ABC,VS,ABC-04-073,40,TEMP,Temperature,,36.9,C,36.9,36.9,C,,12,WEEK 12,2007-01-25,87
ABC,VS,ABC-04-073,41,TEMP,Temperature,,36.2,C,36.2,36.2,C,,16,WEEK 16,2007-02-21,114
ABC,VS,ABC-04-073,42,WEIGHT,Weight,,87,kg,87,87,kg,Y,0,SCREENING,2006-10-10,-21
ABC,VS,ABC-04-074,1,DIABP,Diastolic Blood Pressure,SITTING,66,mmHg,66,66,mmHg,,0,SCREENING,2006-10-16,-16
ABC,VS,ABC-04-074,2,DIABP,Diastolic Blood Pressure,SITTING,67,mmHg,67,67,mmHg,Y,1,DAY 1,2006-11-01,1
ABC,VS,ABC-04-074,3,DIABP,Diastolic Blood Pressure,SITTING,64,mmHg,64,64,mmHg,,20,END OF STUDY EARLY TERMINATION,2006-11-20,20
ABC,VS,ABC-04-074,4,HEIGHT,Height,,162,cm,162,162,cm,Y,0,SCREENING,2006-10-16,-16
ABC,VS,ABC-04-074,5,PULSE,Pulse Rate,,66,BEATS/MIN,66,66,BEATS/MIN,,0,SCREENING,2006-10-16,-16
ABC,VS,ABC-04-074,6,PULSE,Pulse Rate,,67,BEATS/MIN,67,67,BEATS/MIN,Y,1,DAY 1,2006-11-01,1
ABC,VS,ABC-04-074,7,PULSE,Pulse Rate,,66,BEATS/MIN,66,66,BEATS/MIN,,20,END OF STUDY EARLY TERMINATION,2006-11-20,20
ABC,VS,ABC-04-074,8,RESP,Respiratory Rate,,14,BREATHS/MIN,14,14,BREATHS/MIN,,0,SCREENING,2006-10-16,-16
ABC,VS,ABC-04-074,9,RESP,Respiratory Rate,,16,BREATHS/MIN,16,16,BREATHS/MIN,Y,1,DAY 1,2006-11-01,1
ABC,VS,ABC-04-074,10,RESP,Respiratory Rate,,12,BREATHS/MIN,12,12,BREATHS/MIN,,20,END OF STUDY EARLY TERMINATION,2006-11-20,20
ABC,VS,ABC-04-074,11,SYSBP,Systolic Blood Pressure,SITTING,103,mmHg,103,103,mmHg,,0,SCREENING,2006-10-16,-16
ABC,VS,ABC-04-074,12,SYSBP,Systolic Blood Pressure,SITTING,106,mmHg,106,106,mmHg,Y,1,DAY 1,2006-11-01,1
ABC,VS,ABC-04-074,13,SYSBP,Systolic Blood Pressure,SITTING,99,mmHg,99,99,mmHg,,20,END OF STUDY EARLY TERMINATION,2006-11-20,20
ABC,VS,ABC-04-074,14,TEMP,Temperature,,36.5,C,36.5,36.5,C,,0,SCREENING,2006-10-16,-16
ABC,VS,ABC-04-074,15,TEMP,Temperature,,36.9,C,36.9,36.9,C,Y,1,DAY 1,2006-11-01,1
ABC,VS,ABC-04-074,16,TEMP,Temperature,,36.3,C,36.3,36.3,C,,20,END OF STUDY EARLY TERMINATION,2006-11-20,20
ABC,VS,ABC-04-074,17,WEIGHT,Weight,,57.2,kg,57.2,57.2,kg,Y,0,SCREENING,2006-10-16,-16
ABC,VS,ABC-04-075,1,DIABP,Diastolic Blood Pressure,SITTING,68,mmHg,68,68,mmHg,,0,SCREENING,2006-11-02,-7
ABC,VS,ABC-04-075,2,DIABP,Diastolic Blood Pressure,SITTING,81,mmHg,81,81,mmHg,Y,1,DAY 1,2006-11-09,1
ABC,VS,ABC-04-075,3,DIABP,Diastolic Blood Pressure,SITTING,78,mmHg,78,78,mmHg,,2,WEEK 2,2006-11-21,13
ABC,VS,ABC-04-075,4,DIABP,Diastolic Blood Pressure,SITTING,92,mmHg,92,92,mmHg,,4,WEEK 4,2006-12-04,26
ABC,VS,ABC-04-075,5,DIABP,Diastolic Blood Pressure,SITTING,77,mmHg,77,77,mmHg,,6,WEEK 6,2006-12-19,41
ABC,VS,ABC-04-075,6,DIABP,Diastolic Blood Pressure,SITTING,73,mmHg,73,73,mmHg,,8,WEEK 8,2007-01-04,57
ABC,VS,ABC-04-075,7,DIABP,Diastolic Blood Pressure,SITTING,88,mmHg,88,88,mmHg,,12,WEEK 12,2007-02-09,93
ABC,VS,ABC-04-075,8,DIABP,Diastolic Blood Pressure,SITTING,79,mmHg,79,79,mmHg,,16,WEEK 16,2007-03-07,119
ABC,VS,ABC-04-075,9,HEIGHT,Height,,181,cm,181,181,cm,Y,0,SCREENING,2006-11-02,-7
ABC,VS,ABC-04-075,10,PULSE,Pulse Rate,,57,BEATS/MIN,57,57,BEATS/MIN,,0,SCREENING,2006-11-02,-7
ABC,VS,ABC-04-075,11,PULSE,Pulse Rate,,63,BEATS/MIN,63,63,BEATS/MIN,Y,1,DAY 1,2006-11-09,1
ABC,VS,ABC-04-075,12,PULSE,Pulse Rate,,60,BEATS/MIN,60,60,BEATS/MIN,,2,WEEK 2,2006-11-21,13
ABC,VS,ABC-04-075,13,PULSE,Pulse Rate,,63,BEATS/MIN,63,63,BEATS/MIN,,4,WEEK 4,2006-12-04,26
ABC,VS,ABC-04-075,14,PULSE,Pulse Rate,,54,BEATS/MIN,54,54,BEATS/MIN,,6,WEEK 6,2006-12-19,41
ABC,VS,ABC-04-075,15,PULSE,Pulse Rate,,65,BEATS/MIN,65,65,BEATS/MIN,,8,WEEK 8,2007-01-04,57
ABC,VS,ABC-04-075,16,PULSE,Pulse Rate,,64,BEATS/MIN,64,64,BEATS/MIN,,12,WEEK 12,2007-02-09,93
ABC,VS,ABC-04-075,17,PULSE,Pulse Rate,,62,BEATS/MIN,62,62,BEATS/MIN,,16,WEEK 16,2007-03-07,119
ABC,VS,ABC-04-075,18,RESP,Respiratory Rate,,16,BREATHS/MIN,16,16,BREATHS/MIN,,0,SCREENING,2006-11-02,-7
ABC,VS,ABC-04-075,19,RESP,Respiratory Rate,,16,BREATHS/MIN,16,16,BREATHS/MIN,Y,1,DAY 1,2006-11-09,1
ABC,VS,ABC-04-075,20,RESP,Respiratory Rate,,16,BREATHS/MIN,16,16,BREATHS/MIN,,2,WEEK 2,2006-11-21,13
ABC,VS,ABC-04-075,21,RESP,Respiratory Rate,,16,BREATHS/MIN,16,16,BREATHS/MIN,,4,WEEK 4,2006-12-04,26
ABC,VS,ABC-04-075,22,RESP,Respiratory Rate,,16,BREATHS/MIN,16,16,BREATHS/MIN,,6,WEEK 6,2006-12-19,41
ABC,VS,ABC-04-075,23,RESP,Respiratory Rate,,16,BREATHS/MIN,16,16,BREATHS/MIN,,8,WEEK 8,2007-01-04,57
ABC,VS,ABC-04-075,24,RESP,Respiratory Rate,,16,BREATHS/MIN,16,16,BREATHS/MIN,,12,WEEK 12,2007-02-09,93
ABC,VS,ABC-04-075,25,RESP,Respiratory Rate,,16,BREATHS/MIN,16,16,BREATHS/MIN,,16,WEEK 16,2007-03-07,119
ABC,VS,ABC-04-075,26,SYSBP,Systolic Blood Pressure,SITTING,142,mmHg,142,142,mmHg,,0,SCREENING,2006-11-02,-7
ABC,VS,ABC-04-075,27,SYSBP,Systolic Blood Pressure,SITTING,137,mmHg,137,137,mmHg,Y,1,DAY 1,2006-11-09,1
ABC,VS,ABC-04-075,28,SYSBP,Systolic Blood Pressure,SITTING,142,mmHg,142,142,mmHg,,2,WEEK 2,2006-11-21,13
ABC,VS,ABC-04-075,29,SYSBP,Systolic Blood Pressure,SITTING,179,mmHg,179,179,mmHg,,4,WEEK 4,2006-12-04,26
ABC,VS,ABC-04-075,30,SYSBP,Systolic Blood Pressure,SITTING,129,mmHg,129,129,mmHg,,6,WEEK 6,2006-12-19,41
ABC,VS,ABC-04-075,31,SYSBP,Systolic Blood Pressure,SITTING,115,mmHg,115,115,mmHg,,8,WEEK 8,2007-01-04,57
ABC,VS,ABC-04-075,32,SYSBP,Systolic Blood Pressure,SITTING,150,mmHg,150,150,mmHg,,12,WEEK 12,2007-02-09,93
ABC,VS,ABC-04-075,33,SYSBP,Systolic Blood Pressure,SITTING,135,mmHg,135,135,mmHg,,16,WEEK 16,2007-03-07,119
ABC,VS,ABC-04-075,34,TEMP,Temperature,,37.1,C,37.1,37.1,C,,0,SCREENING,2006-11-02,-7
ABC,VS,ABC-04-075,35,TEMP,Temperature,,36.9,C,36.9,36.9,C,Y,1,DAY 1,2006-11-09,1
ABC,VS,ABC-04-075,36,TEMP,Temperature,,36.6,C,36.6,36.6,C,,2,WEEK 2,2006-11-21,13
ABC,VS,ABC-04-075,37,TEMP,Temperature,,36.5,C,36.5,36.5,C,,4,WEEK 4,2006-12-04,26
ABC,VS,ABC-04-075,38,TEMP,Temperature,,36.6,C,36.6,36.6,C,,6,WEEK 6,2006-12-19,41
ABC,VS,ABC-04-075,39,TEMP,Temperature,,36.5,C,36.5,36.5,C,,8,WEEK 8,2007-01-04,57
ABC,VS,ABC-04-075,40,TEMP,Temperature,,36.1,C,36.1,36.1,C,,12,WEEK 12,2007-02-09,93
ABC,VS,ABC-04-075,41,TEMP,Temperature,,36.8,C,36.8,36.8,C,,16,WEEK 16,2007-03-07,119
ABC,VS,ABC-04-075,42,WEIGHT,Weight,,93.8,kg,93.8,93.8,kg,Y,0,SCREENING,2006-11-02,-7
ABC,VS,ABC-04-076,1,DIABP,Diastolic Blood Pressure,SITTING,80,mmHg,80,80,mmHg,,0,SCREENING,2006-10-26,-20
ABC,VS,ABC-04-076,2,DIABP,Diastolic Blood Pressure,SITTING,86,mmHg,86,86,mmHg,Y,1,DAY 1,2006-11-15,1
ABC,VS,ABC-04-076,3,DIABP,Diastolic Blood Pressure,SITTING,89,mmHg,89,89,mmHg,,2,WEEK 2,2006-11-30,16
ABC,VS,ABC-04-076,4,DIABP,Diastolic Blood Pressure,SITTING,90,mmHg,90,90,mmHg,,4,WEEK 4,2006-12-14,30
ABC,VS,ABC-04-076,5,DIABP,Diastolic Blood Pressure,SITTING,93,mmHg,93,93,mmHg,,6,WEEK 6,2006-12-29,45
ABC,VS,ABC-04-076,6,DIABP,Diastolic Blood Pressure,SITTING,84,mmHg,84,84,mmHg,,8,WEEK 8,2007-01-11,58
ABC,VS,ABC-04-076,7,DIABP,Diastolic Blood Pressure,SITTING,89,mmHg,89,89,mmHg,,12,WEEK 12,2007-02-08,86
ABC,VS,ABC-04-076,8,DIABP,Diastolic Blood Pressure,SITTING,89,mmHg,89,89,mmHg,,16,WEEK 16,2007-03-08,114
ABC,VS,ABC-04-076,9,HEIGHT,Height,,174,cm,174,174,cm,Y,0,SCREENING,2006-10-26,-20
ABC,VS,ABC-04-076,10,PULSE,Pulse Rate,,72,BEATS/MIN,72,72,BEATS/MIN,,0,SCREENING,2006-10-26,-20
ABC,VS,ABC-04-076,11,PULSE,Pulse Rate,,79,BEATS/MIN,79,79,BEATS/MIN,Y,1,DAY 1,2006-11-15,1
ABC,VS,ABC-04-076,12,PULSE,Pulse Rate,,75,BEATS/MIN,75,75,BEATS/MIN,,2,WEEK 2,2006-11-30,16
ABC,VS,ABC-04-076,13,PULSE,Pulse Rate,,76,BEATS/MIN,76,76,BEATS/MIN,,4,WEEK 4,2006-12-14,30
ABC,VS,ABC-04-076,14,PULSE,Pulse Rate,,79,BEATS/MIN,79,79,BEATS/MIN,,6,WEEK 6,2006-12-29,45
ABC,VS,ABC-04-076,15,PULSE,Pulse Rate,,79,BEATS/MIN,79,79,BEATS/MIN,,8,WEEK 8,2007-01-11,58
ABC,VS,ABC-04-076,16,PULSE,Pulse Rate,,86,BEATS/MIN,86,86,BEATS/MIN,,12,WEEK 12,2007-02-08,86
ABC,VS,ABC-04-076,17,PULSE,Pulse Rate,,69,BEATS/MIN,69,69,BEATS/MIN,,16,WEEK 16,2007-03-08,114
ABC,VS,ABC-04-076,18,RESP,Respiratory Rate,,16,BREATHS/MIN,16,16,BREATHS/MIN,,0,SCREENING,2006-10-26,-20
ABC,VS,ABC-04-076,19,RESP,Respiratory Rate,,16,BREATHS/MIN,16,16,BREATHS/MIN,Y,1,DAY 1,2006-11-15,1
ABC,VS,ABC-04-076,20,RESP,Respiratory Rate,,16,BREATHS/MIN,16,16,BREATHS/MIN,,2,WEEK 2,2006-11-30,16
ABC,VS,ABC-04-076,21,RESP,Respiratory Rate,,16,BREATHS/MIN,16,16,BREATHS/MIN,,4,WEEK 4,2006-12-14,30
ABC,VS,ABC-04-076,22,RESP,Respiratory Rate,,16,BREATHS/MIN,16,16,BREATHS/MIN,,6,WEEK 6,2006-12-29,45
ABC,VS,ABC-04-076,23,RESP,Respiratory Rate,,16,BREATHS/MIN,16,16,BREATHS/MIN,,8,WEEK 8,2007-01-11,58
ABC,VS,ABC-04-076,24,RESP,Respiratory Rate,,16,BREATHS/MIN,16,16,BREATHS/MIN,,12,WEEK 12,2007-02-08,86
ABC,VS,ABC-04-076,25,RESP,Respiratory Rate,,16,BREATHS/MIN,16,16,BREATHS/MIN,,16,WEEK 16,2007-03-08,114
ABC,VS,ABC-04-076,26,SYSBP,Systolic Blood Pressure,SITTING,122,mmHg,122,122,mmHg,,0,SCREENING,2006-10-26,-20
ABC,VS,ABC-04-076,27,SYSBP,Systolic Blood Pressure,SITTING,139,mmHg,139,139,mmHg,Y,1,DAY 1,2006-11-15,1
ABC,VS,ABC-04-076,28,SYSBP,Systolic Blood Pressure,SITTING,130,mmHg,130,130,mmHg,,2,WEEK 2,2006-11-30,16
ABC,VS,ABC-04-076,29,SYSBP,Systolic Blood Pressure,SITTING,133,mmHg,133,133,mmHg,,4,WEEK 4,2006-12-14,30
ABC,VS,ABC-04-076,30,SYSBP,Systolic Blood Pressure,SITTING,137,mmHg,137,137,mmHg,,6,WEEK 6,2006-12-29,45
ABC,VS,ABC-04-076,31,SYSBP,Systolic Blood Pressure,SITTING,127,mmHg,127,127,mmHg,,8,WEEK 8,2007-01-11,58
ABC,VS,ABC-04-076,32,SYSBP,Systolic Blood Pressure,SITTING,131,mmHg,131,131,mmHg,,12,WEEK 12,2007-02-08,86
ABC,VS,ABC-04-076,33,SYSBP,Systolic Blood Pressure,SITTING,130,mmHg,130,130,mmHg,,16,WEEK 16,2007-03-08,114
ABC,VS,ABC-04-076,34,TEMP,Temperature,,36.2,C,36.2,36.2,C,,0,SCREENING,2006-10-26,-20
ABC,VS,ABC-04-076,35,TEMP,Temperature,,36.1,C,36.1,36.1,C,Y,1,DAY 1,2006-11-15,1
ABC,VS,ABC-04-076,36,TEMP,Temperature,,36.4,C,36.4,36.4,C,,2,WEEK 2,2006-11-30,16
ABC,VS,ABC-04-076,37,TEMP,Temperature,,36.4,C,36.4,36.4,C,,4,WEEK 4,2006-12-14,30
ABC,VS,ABC-04-076,38,TEMP,Temperature,,36,C,36,36,C,,6,WEEK 6,2006-12-29,45
ABC,VS,ABC-04-076,39,TEMP,Temperature,,36.5,C,36.5,36.5,C,,8,WEEK 8,2007-01-11,58
ABC,VS,ABC-04-076,40,TEMP,Temperature,,36.4,C,36.4,36.4,C,,12,WEEK 12,2007-02-08,86
ABC,VS,ABC-04-076,41,TEMP,Temperature,,36.1,C,36.1,36.1,C,,16,WEEK 16,2007-03-08,114
ABC,VS,ABC-04-076,42,WEIGHT,Weight,,105,kg,105,105,kg,Y,0,SCREENING,2006-10-26,-20
ABC,VS,ABC-04-077,1,DIABP,Diastolic Blood Pressure,SITTING,78,mmHg,78,78,mmHg,,0,SCREENING,2006-11-02,-13
ABC,VS,ABC-04-077,2,DIABP,Diastolic Blood Pressure,SITTING,79,mmHg,79,79,mmHg,Y,1,DAY 1,2006-11-15,1
ABC,VS,ABC-04-077,3,DIABP,Diastolic Blood Pressure,SITTING,81,mmHg,81,81,mmHg,,2,WEEK 2,2006-12-05,21
ABC,VS,ABC-04-077,4,DIABP,Diastolic Blood Pressure,SITTING,72,mmHg,72,72,mmHg,,4,WEEK 4,2006-12-15,31
ABC,VS,ABC-04-077,5,DIABP,Diastolic Blood Pressure,SITTING,88,mmHg,88,88,mmHg,,6,WEEK 6,2006-12-27,43
ABC,VS,ABC-04-077,6,DIABP,Diastolic Blood Pressure,SITTING,80,mmHg,80,80,mmHg,,8,WEEK 8,2007-01-18,65
ABC,VS,ABC-04-077,7,DIABP,Diastolic Blood Pressure,SITTING,79,mmHg,79,79,mmHg,,12,WEEK 12,2007-02-12,90
ABC,VS,ABC-04-077,8,DIABP,Diastolic Blood Pressure,SITTING,63,mmHg,63,63,mmHg,,16,WEEK 16,2007-03-12,118
ABC,VS,ABC-04-077,9,HEIGHT,Height,,172,cm,172,172,cm,Y,0,SCREENING,2006-11-02,-13
ABC,VS,ABC-04-077,10,PULSE,Pulse Rate,,80,BEATS/MIN,80,80,BEATS/MIN,,0,SCREENING,2006-11-02,-13
ABC,VS,ABC-04-077,11,PULSE,Pulse Rate,,87,BEATS/MIN,87,87,BEATS/MIN,Y,1,DAY 1,2006-11-15,1
ABC,VS,ABC-04-077,12,PULSE,Pulse Rate,,88,BEATS/MIN,88,88,BEATS/MIN,,2,WEEK 2,2006-12-05,21
ABC,VS,ABC-04-077,13,PULSE,Pulse Rate,,85,BEATS/MIN,85,85,BEATS/MIN,,4,WEEK 4,2006-12-15,31
ABC,VS,ABC-04-077,14,PULSE,Pulse Rate,,90,BEATS/MIN,90,90,BEATS/MIN,,6,WEEK 6,2006-12-27,43
ABC,VS,ABC-04-077,15,PULSE,Pulse Rate,,96,BEATS/MIN,96,96,BEATS/MIN,,8,WEEK 8,2007-01-18,65
ABC,VS,ABC-04-077,16,PULSE,Pulse Rate,,94,BEATS/MIN,94,94,BEATS/MIN,,12,WEEK 12,2007-02-12,90
ABC,VS,ABC-04-077,17,PULSE,Pulse Rate,,83,BEATS/MIN,83,83,BEATS/MIN,,16,WEEK 16,2007-03-12,118
ABC,VS,ABC-04-077,18,RESP,Respiratory Rate,,16,BREATHS/MIN,16,16,BREATHS/MIN,,0,SCREENING,2006-11-02,-13
ABC,VS,ABC-04-077,19,RESP,Respiratory Rate,,16,BREATHS/MIN,16,16,BREATHS/MIN,Y,1,DAY 1,2006-11-15,1
ABC,VS,ABC-04-077,20,RESP,Respiratory Rate,,14,BREATHS/MIN,14,14,BREATHS/MIN,,2,WEEK 2,2006-12-05,21
ABC,VS,ABC-04-077,21,RESP,Respiratory Rate,,16,BREATHS/MIN,16,16,BREATHS/MIN,,4,WEEK 4,2006-12-15,31
ABC,VS,ABC-04-077,22,RESP,Respiratory Rate,,16,BREATHS/MIN,16,16,BREATHS/MIN,,6,WEEK 6,2006-12-27,43
ABC,VS,ABC-04-077,23,RESP,Respiratory Rate,,12,BREATHS/MIN,12,12,BREATHS/MIN,,8,WEEK 8,2007-01-18,65
ABC,VS,ABC-04-077,24,RESP,Respiratory Rate,,16,BREATHS/MIN,16,16,BREATHS/MIN,,12,WEEK 12,2007-02-12,90
ABC,VS,ABC-04-077,25,RESP,Respiratory Rate,,16,BREATHS/MIN,16,16,BREATHS/MIN,,16,WEEK 16,2007-03-12,118
ABC,VS,ABC-04-077,26,SYSBP,Systolic Blood Pressure,SITTING,127,mmHg,127,127,mmHg,,0,SCREENING,2006-11-02,-13
ABC,VS,ABC-04-077,27,SYSBP,Systolic Blood Pressure,SITTING,130,mmHg,130,130,mmHg,Y,1,DAY 1,2006-11-15,1
ABC,VS,ABC-04-077,28,SYSBP,Systolic Blood Pressure,SITTING,136,mmHg,136,136,mmHg,,2,WEEK 2,2006-12-05,21
ABC,VS,ABC-04-077,29,SYSBP,Systolic Blood Pressure,SITTING,125,mmHg,125,125,mmHg,,4,WEEK 4,2006-12-15,31
ABC,VS,ABC-04-077,30,SYSBP,Systolic Blood Pressure,SITTING,128,mmHg,128,128,mmHg,,6,WEEK 6,2006-12-27,43
ABC,VS,ABC-04-077,31,SYSBP,Systolic Blood Pressure,SITTING,124,mmHg,124,124,mmHg,,8,WEEK 8,2007-01-18,65
ABC,VS,ABC-04-077,32,SYSBP,Systolic Blood Pressure,SITTING,133,mmHg,133,133,mmHg,,12,WEEK 12,2007-02-12,90
ABC,VS,ABC-04-077,33,SYSBP,Systolic Blood Pressure,SITTING,114,mmHg,114,114,mmHg,,16,WEEK 16,2007-03-12,118
ABC,VS,ABC-04-077,34,TEMP,Temperature,,36.1,C,36.1,36.1,C,,0,SCREENING,2006-11-02,-13
ABC,VS,ABC-04-077,35,TEMP,Temperature,,36.1,C,36.1,36.1,C,Y,1,DAY 1,2006-11-15,1
ABC,VS,ABC-04-077,36,TEMP,Temperature,,36.2,C,36.2,36.2,C,,2,WEEK 2,2006-12-05,21
ABC,VS,ABC-04-077,37,TEMP,Temperature,,36.4,C,36.4,36.4,C,,4,WEEK 4,2006-12-15,31
ABC,VS,ABC-04-077,38,TEMP,Temperature,,36.5,C,36.5,36.5,C,,6,WEEK 6,2006-12-27,43
ABC,VS,ABC-04-077,39,TEMP,Temperature,,36.1,C,36.1,36.1,C,,8,WEEK 8,2007-01-18,65
ABC,VS,ABC-04-077,40,TEMP,Temperature,,36.4,C,36.4,36.4,C,,12,WEEK 12,2007-02-12,90
ABC,VS,ABC-04-077,41,TEMP,Temperature,,36.6,C,36.6,36.6,C,,16,WEEK 16,2007-03-12,118
ABC,VS,ABC-04-077,42,WEIGHT,Weight,,89.9,kg,89.9,89.9,kg,Y,0,SCREENING,2006-11-02,-13
ABC,VS,ABC-04-078,1,DIABP,Diastolic Blood Pressure,SITTING,81,mmHg,81,81,mmHg,,0,SCREENING,2006-11-21,-22
ABC,VS,ABC-04-078,2,DIABP,Diastolic Blood Pressure,SITTING,80,mmHg,80,80,mmHg,Y,1,DAY 1,2006-12-13,1
ABC,VS,ABC-04-078,3,DIABP,Diastolic Blood Pressure,SITTING,79,mmHg,79,79,mmHg,,2,WEEK 2,2006-12-28,16
ABC,VS,ABC-04-078,4,DIABP,Diastolic Blood Pressure,SITTING,84,mmHg,84,84,mmHg,,4,WEEK 4,2007-01-10,29
ABC,VS,ABC-04-078,5,DIABP,Diastolic Blood Pressure,SITTING,83,mmHg,83,83,mmHg,,6,WEEK 6,2007-01-25,44
ABC,VS,ABC-04-078,6,DIABP,Diastolic Blood Pressure,SITTING,87,mmHg,87,87,mmHg,,8,WEEK 8,2007-02-08,58
ABC,VS,ABC-04-078,7,DIABP,Diastolic Blood Pressure,SITTING,80,mmHg,80,80,mmHg,,12,WEEK 12,2007-03-08,86
ABC,VS,ABC-04-078,8,DIABP,Diastolic Blood Pressure,SITTING,92,mmHg,92,92,mmHg,,16,WEEK 16,2007-04-04,113
ABC,VS,ABC-04-078,9,HEIGHT,Height,,164.5,cm,164.5,164.5,cm,Y,0,SCREENING,2006-11-21,-22
ABC,VS,ABC-04-078,10,PULSE,Pulse Rate,,63,BEATS/MIN,63,63,BEATS/MIN,,0,SCREENING,2006-11-21,-22
ABC,VS,ABC-04-078,11,PULSE,Pulse Rate,,71,BEATS/MIN,71,71,BEATS/MIN,Y,1,DAY 1,2006-12-13,1
ABC,VS,ABC-04-078,12,PULSE,Pulse Rate,,73,BEATS/MIN,73,73,BEATS/MIN,,2,WEEK 2,2006-12-28,16
ABC,VS,ABC-04-078,13,PULSE,Pulse Rate,,80,BEATS/MIN,80,80,BEATS/MIN,,4,WEEK 4,2007-01-10,29
ABC,VS,ABC-04-078,14,PULSE,Pulse Rate,,78,BEATS/MIN,78,78,BEATS/MIN,,6,WEEK 6,2007-01-25,44
ABC,VS,ABC-04-078,15,PULSE,Pulse Rate,,82,BEATS/MIN,82,82,BEATS/MIN,,8,WEEK 8,2007-02-08,58
ABC,VS,ABC-04-078,16,PULSE,Pulse Rate,,78,BEATS/MIN,78,78,BEATS/MIN,,12,WEEK 12,2007-03-08,86
ABC,VS,ABC-04-078,17,PULSE,Pulse Rate,,68,BEATS/MIN,68,68,BEATS/MIN,,16,WEEK 16,2007-04-04,113
ABC,VS,ABC-04-078,18,RESP,Respiratory Rate,,16,BREATHS/MIN,16,16,BREATHS/MIN,,0,SCREENING,2006-11-21,-22
ABC,VS,ABC-04-078,19,RESP,Respiratory Rate,,16,BREATHS/MIN,16,16,BREATHS/MIN,Y,1,DAY 1,2006-12-13,1
ABC,VS,ABC-04-078,20,RESP,Respiratory Rate,,16,BREATHS/MIN,16,16,BREATHS/MIN,,2,WEEK 2,2006-12-28,16
ABC,VS,ABC-04-078,21,RESP,Respiratory Rate,,16,BREATHS/MIN,16,16,BREATHS/MIN,,4,WEEK 4,2007-01-10,29
ABC,VS,ABC-04-078,22,RESP,Respiratory Rate,,14,BREATHS/MIN,14,14,BREATHS/MIN,,6,WEEK 6,2007-01-25,44
ABC,VS,ABC-04-078,23,RESP,Respiratory Rate,,16,BREATHS/MIN,16,16,BREATHS/MIN,,8,WEEK 8,2007-02-08,58
ABC,VS,ABC-04-078,24,RESP,Respiratory Rate,,12,BREATHS/MIN,12,12,BREATHS/MIN,,12,WEEK 12,2007-03-08,86
ABC,VS,ABC-04-078,25,RESP,Respiratory Rate,,12,BREATHS/MIN,12,12,BREATHS/MIN,,16,WEEK 16,2007-04-04,113
ABC,VS,ABC-04-078,26,SYSBP,Systolic Blood Pressure,SITTING,144,mmHg,144,144,mmHg,,0,SCREENING,2006-11-21,-22
ABC,VS,ABC-04-078,27,SYSBP,Systolic Blood Pressure,SITTING,128,mmHg,128,128,mmHg,Y,1,DAY 1,2006-12-13,1
ABC,VS,ABC-04-078,28,SYSBP,Systolic Blood Pressure,SITTING,129,mmHg,129,129,mmHg,,2,WEEK 2,2006-12-28,16
ABC,VS,ABC-04-078,29,SYSBP,Systolic Blood Pressure,SITTING,118,mmHg,118,118,mmHg,,4,WEEK 4,2007-01-10,29
ABC,VS,ABC-04-078,30,SYSBP,Systolic Blood Pressure,SITTING,139,mmHg,139,139,mmHg,,6,WEEK 6,2007-01-25,44
ABC,VS,ABC-04-078,31,SYSBP,Systolic Blood Pressure,SITTING,145,mmHg,145,145,mmHg,,8,WEEK 8,2007-02-08,58
ABC,VS,ABC-04-078,32,SYSBP,Systolic Blood Pressure,SITTING,110,mmHg,110,110,mmHg,,12,WEEK 12,2007-03-08,86
ABC,VS,ABC-04-078,33,SYSBP,Systolic Blood Pressure,SITTING,148,mmHg,148,148,mmHg,,16,WEEK 16,2007-04-04,113
ABC,VS,ABC-04-078,34,TEMP,Temperature,,36.4,C,36.4,36.4,C,,0,SCREENING,2006-11-21,-22
ABC,VS,ABC-04-078,35,TEMP,Temperature,,36.1,C,36.1,36.1,C,Y,1,DAY 1,2006-12-13,1
ABC,VS,ABC-04-078,36,TEMP,Temperature,,36.5,C,36.5,36.5,C,,2,WEEK 2,2006-12-28,16
ABC,VS,ABC-04-078,37,TEMP,Temperature,,36.2,C,36.2,36.2,C,,4,WEEK 4,2007-01-10,29
ABC,VS,ABC-04-078,38,TEMP,Temperature,,36.5,C,36.5,36.5,C,,6,WEEK 6,2007-01-25,44
ABC,VS,ABC-04-078,39,TEMP,Temperature,,36.7,C,36.7,36.7,C,,8,WEEK 8,2007-02-08,58
ABC,VS,ABC-04-078,40,TEMP,Temperature,,36.4,C,36.4,36.4,C,,12,WEEK 12,2007-03-08,86
ABC,VS,ABC-04-078,41,TEMP,Temperature,,36.8,C,36.8,36.8,C,,16,WEEK 16,2007-04-04,113
ABC,VS,ABC-04-078,42,WEIGHT,Weight,,115.1,kg,115.1,115.1,kg,Y,0,SCREENING,2006-11-21,-22
ABC,VS,ABC-04-079,1,DIABP,Diastolic Blood Pressure,SITTING,70,mmHg,70,70,mmHg,,0,SCREENING,2006-12-11,-7
ABC,VS,ABC-04-079,2,DIABP,Diastolic Blood Pressure,SITTING,70,mmHg,70,70,mmHg,Y,1,DAY 1,2006-12-18,1
ABC,VS,ABC-04-079,3,DIABP,Diastolic Blood Pressure,SITTING,68,mmHg,68,68,mmHg,,2,WEEK 2,2007-01-02,16
ABC,VS,ABC-04-079,4,DIABP,Diastolic Blood Pressure,SITTING,69,mmHg,69,69,mmHg,,4,WEEK 4,2007-01-15,29
ABC,VS,ABC-04-079,5,DIABP,Diastolic Blood Pressure,SITTING,79,mmHg,79,79,mmHg,,6,WEEK 6,2007-02-01,46
ABC,VS,ABC-04-079,6,DIABP,Diastolic Blood Pressure,SITTING,72,mmHg,72,72,mmHg,,8,WEEK 8,2007-02-14,59
ABC,VS,ABC-04-079,7,DIABP,Diastolic Blood Pressure,SITTING,59,mmHg,59,59,mmHg,,12,WEEK 12,2007-03-14,87
ABC,VS,ABC-04-079,8,DIABP,Diastolic Blood Pressure,SITTING,64,mmHg,64,64,mmHg,,16,WEEK 16,2007-04-12,116
ABC,VS,ABC-04-079,9,HEIGHT,Height,,161.5,cm,161.5,161.5,cm,Y,0,SCREENING,2006-12-11,-7
ABC,VS,ABC-04-079,10,PULSE,Pulse Rate,,68,BEATS/MIN,68,68,BEATS/MIN,,0,SCREENING,2006-12-11,-7
ABC,VS,ABC-04-079,11,PULSE,Pulse Rate,,61,BEATS/MIN,61,61,BEATS/MIN,Y,1,DAY 1,2006-12-18,1
ABC,VS,ABC-04-079,12,PULSE,Pulse Rate,,60,BEATS/MIN,60,60,BEATS/MIN,,2,WEEK 2,2007-01-02,16
ABC,VS,ABC-04-079,13,PULSE,Pulse Rate,,64,BEATS/MIN,64,64,BEATS/MIN,,4,WEEK 4,2007-01-15,29
ABC,VS,ABC-04-079,14,PULSE,Pulse Rate,,73,BEATS/MIN,73,73,BEATS/MIN,,6,WEEK 6,2007-02-01,46
ABC,VS,ABC-04-079,15,PULSE,Pulse Rate,,65,BEATS/MIN,65,65,BEATS/MIN,,8,WEEK 8,2007-02-14,59
ABC,VS,ABC-04-079,16,PULSE,Pulse Rate,,62,BEATS/MIN,62,62,BEATS/MIN,,12,WEEK 12,2007-03-14,87
ABC,VS,ABC-04-079,17,PULSE,Pulse Rate,,66,BEATS/MIN,66,66,BEATS/MIN,,16,WEEK 16,2007-04-12,116
ABC,VS,ABC-04-079,18,RESP,Respiratory Rate,,16,BREATHS/MIN,16,16,BREATHS/MIN,,0,SCREENING,2006-12-11,-7
ABC,VS,ABC-04-079,19,RESP,Respiratory Rate,,16,BREATHS/MIN,16,16,BREATHS/MIN,Y,1,DAY 1,2006-12-18,1
ABC,VS,ABC-04-079,20,RESP,Respiratory Rate,,20,BREATHS/MIN,20,20,BREATHS/MIN,,2,WEEK 2,2007-01-02,16
ABC,VS,ABC-04-079,21,RESP,Respiratory Rate,,16,BREATHS/MIN,16,16,BREATHS/MIN,,4,WEEK 4,2007-01-15,29
ABC,VS,ABC-04-079,22,RESP,Respiratory Rate,,16,BREATHS/MIN,16,16,BREATHS/MIN,,6,WEEK 6,2007-02-01,46
ABC,VS,ABC-04-079,23,RESP,Respiratory Rate,,16,BREATHS/MIN,16,16,BREATHS/MIN,,8,WEEK 8,2007-02-14,59
ABC,VS,ABC-04-079,24,RESP,Respiratory Rate,,16,BREATHS/MIN,16,16,BREATHS/MIN,,12,WEEK 12,2007-03-14,87
ABC,VS,ABC-04-079,25,RESP,Respiratory Rate,,16,BREATHS/MIN,16,16,BREATHS/MIN,,16,WEEK 16,2007-04-12,116
ABC,VS,ABC-04-079,26,SYSBP,Systolic Blood Pressure,SITTING,152,mmHg,152,152,mmHg,,0,SCREENING,2006-12-11,-7
ABC,VS,ABC-04-079,27,SYSBP,Systolic Blood Pressure,SITTING,146,mmHg,146,146,mmHg,Y,1,DAY 1,2006-12-18,1
ABC,VS,ABC-04-079,28,SYSBP,Systolic Blood Pressure,SITTING,130,mmHg,130,130,mmHg,,2,WEEK 2,2007-01-02,16
ABC,VS,ABC-04-079,29,SYSBP,Systolic Blood Pressure,SITTING,134,mmHg,134,134,mmHg,,4,WEEK 4,2007-01-15,29
ABC,VS,ABC-04-079,30,SYSBP,Systolic Blood Pressure,SITTING,169,mmHg,169,169,mmHg,,6,WEEK 6,2007-02-01,46
ABC,VS,ABC-04-079,31,SYSBP,Systolic Blood Pressure,SITTING,153,mmHg,153,153,mmHg,,8,WEEK 8,2007-02-14,59
ABC,VS,ABC-04-079,32,SYSBP,Systolic Blood Pressure,SITTING,109,mmHg,109,109,mmHg,,12,WEEK 12,2007-03-14,87
ABC,VS,ABC-04-079,33,SYSBP,Systolic Blood Pressure,SITTING,110,mmHg,110,110,mmHg,,16,WEEK 16,2007-04-12,116
ABC,VS,ABC-04-079,34,TEMP,Temperature,,36,C,36,36,C,,0,SCREENING,2006-12-11,-7
ABC,VS,ABC-04-079,35,TEMP,Temperature,,36.2,C,36.2,36.2,C,Y,1,DAY 1,2006-12-18,1
ABC,VS,ABC-04-079,36,TEMP,Temperature,,36.1,C,36.1,36.1,C,,2,WEEK 2,2007-01-02,16
ABC,VS,ABC-04-079,37,TEMP,Temperature,,36.8,C,36.8,36.8,C,,4,WEEK 4,2007-01-15,29
ABC,VS,ABC-04-079,38,TEMP,Temperature,,36.1,C,36.1,36.1,C,,6,WEEK 6,2007-02-01,46
ABC,VS,ABC-04-079,39,TEMP,Temperature,,36,C,36,36,C,,8,WEEK 8,2007-02-14,59
ABC,VS,ABC-04-079,40,TEMP,Temperature,,36.1,C,36.1,36.1,C,,12,WEEK 12,2007-03-14,87
ABC,VS,ABC-04-079,41,TEMP,Temperature,,36,C,36,36,C,,16,WEEK 16,2007-04-12,116
ABC,VS,ABC-04-079,42,WEIGHT,Weight,,73.4,kg,73.4,73.4,kg,Y,0,SCREENING,2006-12-11,-7
ABC,VS,ABC-04-080,1,DIABP,Diastolic Blood Pressure,SITTING,82,mmHg,82,82,mmHg,,0,SCREENING,2006-12-12,-9
ABC,VS,ABC-04-080,2,DIABP,Diastolic Blood Pressure,SITTING,79,mmHg,79,79,mmHg,Y,1,DAY 1,2006-12-21,1
ABC,VS,ABC-04-080,3,DIABP,Diastolic Blood Pressure,SITTING,83,mmHg,83,83,mmHg,,2,WEEK 2,2007-01-04,15
ABC,VS,ABC-04-080,4,DIABP,Diastolic Blood Pressure,SITTING,67,mmHg,67,67,mmHg,,4,WEEK 4,2007-01-18,29
ABC,VS,ABC-04-080,5,DIABP,Diastolic Blood Pressure,SITTING,64,mmHg,64,64,mmHg,,6,WEEK 6,2007-01-31,42
ABC,VS,ABC-04-080,6,DIABP,Diastolic Blood Pressure,SITTING,60,mmHg,60,60,mmHg,,8,WEEK 8,2007-02-14,56
ABC,VS,ABC-04-080,7,DIABP,Diastolic Blood Pressure,SITTING,57,mmHg,57,57,mmHg,,12,WEEK 12,2007-03-14,84
ABC,VS,ABC-04-080,8,DIABP,Diastolic Blood Pressure,SITTING,68,mmHg,68,68,mmHg,,16,WEEK 16,2007-04-12,113
ABC,VS,ABC-04-080,9,HEIGHT,Height,,169,cm,169,169,cm,Y,0,SCREENING,2006-12-12,-9
ABC,VS,ABC-04-080,10,PULSE,Pulse Rate,,69,BEATS/MIN,69,69,BEATS/MIN,,0,SCREENING,2006-12-12,-9
ABC,VS,ABC-04-080,11,PULSE,Pulse Rate,,66,BEATS/MIN,66,66,BEATS/MIN,Y,1,DAY 1,2006-12-21,1
ABC,VS,ABC-04-080,12,PULSE,Pulse Rate,,80,BEATS/MIN,80,80,BEATS/MIN,,2,WEEK 2,2007-01-04,15
ABC,VS,ABC-04-080,13,PULSE,Pulse Rate,,70,BEATS/MIN,70,70,BEATS/MIN,,4,WEEK 4,2007-01-18,29
ABC,VS,ABC-04-080,14,PULSE,Pulse Rate,,74,BEATS/MIN,74,74,BEATS/MIN,,6,WEEK 6,2007-01-31,42
ABC,VS,ABC-04-080,15,PULSE,Pulse Rate,,81,BEATS/MIN,81,81,BEATS/MIN,,8,WEEK 8,2007-02-14,56
ABC,VS,ABC-04-080,16,PULSE,Pulse Rate,,80,BEATS/MIN,80,80,BEATS/MIN,,12,WEEK 12,2007-03-14,84
ABC,VS,ABC-04-080,17,PULSE,Pulse Rate,,64,BEATS/MIN,64,64,BEATS/MIN,,16,WEEK 16,2007-04-12,113
ABC,VS,ABC-04-080,18,RESP,Respiratory Rate,,16,BREATHS/MIN,16,16,BREATHS/MIN,,0,SCREENING,2006-12-12,-9
ABC,VS,ABC-04-080,19,RESP,Respiratory Rate,,16,BREATHS/MIN,16,16,BREATHS/MIN,Y,1,DAY 1,2006-12-21,1
ABC,VS,ABC-04-080,20,RESP,Respiratory Rate,,16,BREATHS/MIN,16,16,BREATHS/MIN,,2,WEEK 2,2007-01-04,15
ABC,VS,ABC-04-080,21,RESP,Respiratory Rate,,16,BREATHS/MIN,16,16,BREATHS/MIN,,4,WEEK 4,2007-01-18,29
ABC,VS,ABC-04-080,22,RESP,Respiratory Rate,,16,BREATHS/MIN,16,16,BREATHS/MIN,,6,WEEK 6,2007-01-31,42
ABC,VS,ABC-04-080,23,RESP,Respiratory Rate,,16,BREATHS/MIN,16,16,BREATHS/MIN,,8,WEEK 8,2007-02-14,56
ABC,VS,ABC-04-080,24,RESP,Respiratory Rate,,16,BREATHS/MIN,16,16,BREATHS/MIN,,12,WEEK 12,2007-03-14,84
ABC,VS,ABC-04-080,25,RESP,Respiratory Rate,,16,BREATHS/MIN,16,16,BREATHS/MIN,,16,WEEK 16,2007-04-12,113
ABC,VS,ABC-04-080,26,SYSBP,Systolic Blood Pressure,SITTING,130,mmHg,130,130,mmHg,,0,SCREENING,2006-12-12,-9
ABC,VS,ABC-04-080,27,SYSBP,Systolic Blood Pressure,SITTING,120,mmHg,120,120,mmHg,Y,1,DAY 1,2006-12-21,1
ABC,VS,ABC-04-080,28,SYSBP,Systolic Blood Pressure,SITTING,128,mmHg,128,128,mmHg,,2,WEEK 2,2007-01-04,15
ABC,VS,ABC-04-080,29,SYSBP,Systolic Blood Pressure,SITTING,120,mmHg,120,120,mmHg,,4,WEEK 4,2007-01-18,29
ABC,VS,ABC-04-080,30,SYSBP,Systolic Blood Pressure,SITTING,119,mmHg,119,119,mmHg,,6,WEEK 6,2007-01-31,42
ABC,VS,ABC-04-080,31,SYSBP,Systolic Blood Pressure,SITTING,102,mmHg,102,102,mmHg,,8,WEEK 8,2007-02-14,56
ABC,VS,ABC-04-080,32,SYSBP,Systolic Blood Pressure,SITTING,95,mmHg,95,95,mmHg,,12,WEEK 12,2007-03-14,84
ABC,VS,ABC-04-080,33,SYSBP,Systolic Blood Pressure,SITTING,104,mmHg,104,104,mmHg,,16,WEEK 16,2007-04-12,113
ABC,VS,ABC-04-080,34,TEMP,Temperature,,36.1,C,36.1,36.1,C,,0,SCREENING,2006-12-12,-9
ABC,VS,ABC-04-080,35,TEMP,Temperature,,36.2,C,36.2,36.2,C,Y,1,DAY 1,2006-12-21,1
ABC,VS,ABC-04-080,36,TEMP,Temperature,,36.6,C,36.6,36.6,C,,2,WEEK 2,2007-01-04,15
ABC,VS,ABC-04-080,37,TEMP,Temperature,,36.5,C,36.5,36.5,C,,4,WEEK 4,2007-01-18,29
ABC,VS,ABC-04-080,38,TEMP,Temperature,,36.7,C,36.7,36.7,C,,6,WEEK 6,2007-01-31,42
ABC,VS,ABC-04-080,39,TEMP,Temperature,,36.6,C,36.6,36.6,C,,8,WEEK 8,2007-02-14,56
ABC,VS,ABC-04-080,40,TEMP,Temperature,,36.6,C,36.6,36.6,C,,12,WEEK 12,2007-03-14,84
ABC,VS,ABC-04-080,41,TEMP,Temperature,,36.1,C,36.1,36.1,C,,16,WEEK 16,2007-04-12,113
ABC,VS,ABC-04-080,42,WEIGHT,Weight,,82.9,kg,82.9,82.9,kg,Y,0,SCREENING,2006-12-12,-9
ABC,VS,ABC-04-125,1,DIABP,Diastolic Blood Pressure,SITTING,64,mmHg,64,64,mmHg,,0,SCREENING,2006-12-14,-15
ABC,VS,ABC-04-125,2,DIABP,Diastolic Blood Pressure,SITTING,64,mmHg,64,64,mmHg,Y,1,DAY 1,2006-12-29,1
ABC,VS,ABC-04-125,3,DIABP,Diastolic Blood Pressure,SITTING,60,mmHg,60,60,mmHg,,2,WEEK 2,2007-01-19,22
ABC,VS,ABC-04-125,4,DIABP,Diastolic Blood Pressure,SITTING,67,mmHg,67,67,mmHg,,4,WEEK 4,2007-01-25,28
ABC,VS,ABC-04-125,5,DIABP,Diastolic Blood Pressure,SITTING,67,mmHg,67,67,mmHg,,6,WEEK 6,2007-02-09,43
ABC,VS,ABC-04-125,6,DIABP,Diastolic Blood Pressure,SITTING,63,mmHg,63,63,mmHg,,8,WEEK 8,2007-02-23,57
ABC,VS,ABC-04-125,7,DIABP,Diastolic Blood Pressure,SITTING,68,mmHg,68,68,mmHg,,12,WEEK 12,2007-03-29,91
ABC,VS,ABC-04-125,8,DIABP,Diastolic Blood Pressure,SITTING,62,mmHg,62,62,mmHg,,16,WEEK 16,2007-04-13,106
ABC,VS,ABC-04-125,9,HEIGHT,Height,,183,cm,183,183,cm,Y,0,SCREENING,2006-12-14,-15
ABC,VS,ABC-04-125,10,PULSE,Pulse Rate,,59,BEATS/MIN,59,59,BEATS/MIN,,0,SCREENING,2006-12-14,-15
ABC,VS,ABC-04-125,11,PULSE,Pulse Rate,,59,BEATS/MIN,59,59,BEATS/MIN,Y,1,DAY 1,2006-12-29,1
ABC,VS,ABC-04-125,12,PULSE,Pulse Rate,,67,BEATS/MIN,67,67,BEATS/MIN,,2,WEEK 2,2007-01-19,22
ABC,VS,ABC-04-125,13,PULSE,Pulse Rate,,62,BEATS/MIN,62,62,BEATS/MIN,,4,WEEK 4,2007-01-25,28
ABC,VS,ABC-04-125,14,PULSE,Pulse Rate,,58,BEATS/MIN,58,58,BEATS/MIN,,6,WEEK 6,2007-02-09,43
ABC,VS,ABC-04-125,15,PULSE,Pulse Rate,,62,BEATS/MIN,62,62,BEATS/MIN,,8,WEEK 8,2007-02-23,57
ABC,VS,ABC-04-125,16,PULSE,Pulse Rate,,60,BEATS/MIN,60,60,BEATS/MIN,,12,WEEK 12,2007-03-29,91
ABC,VS,ABC-04-125,17,PULSE,Pulse Rate,,62,BEATS/MIN,62,62,BEATS/MIN,,16,WEEK 16,2007-04-13,106
ABC,VS,ABC-04-125,18,RESP,Respiratory Rate,,14,BREATHS/MIN,14,14,BREATHS/MIN,,0,SCREENING,2006-12-14,-15
ABC,VS,ABC-04-125,19,RESP,Respiratory Rate,,14,BREATHS/MIN,14,14,BREATHS/MIN,Y,1,DAY 1,2006-12-29,1
ABC,VS,ABC-04-125,20,RESP,Respiratory Rate,,16,BREATHS/MIN,16,16,BREATHS/MIN,,2,WEEK 2,2007-01-19,22
ABC,VS,ABC-04-125,21,RESP,Respiratory Rate,,14,BREATHS/MIN,14,14,BREATHS/MIN,,4,WEEK 4,2007-01-25,28
ABC,VS,ABC-04-125,22,RESP,Respiratory Rate,,20,BREATHS/MIN,20,20,BREATHS/MIN,,6,WEEK 6,2007-02-09,43
ABC,VS,ABC-04-125,23,RESP,Respiratory Rate,,16,BREATHS/MIN,16,16,BREATHS/MIN,,8,WEEK 8,2007-02-23,57
ABC,VS,ABC-04-125,24,RESP,Respiratory Rate,,16,BREATHS/MIN,16,16,BREATHS/MIN,,12,WEEK 12,2007-03-29,91
ABC,VS,ABC-04-125,25,RESP,Respiratory Rate,,16,BREATHS/MIN,16,16,BREATHS/MIN,,16,WEEK 16,2007-04-13,106
ABC,VS,ABC-04-125,26,SYSBP,Systolic Blood Pressure,SITTING,135,mmHg,135,135,mmHg,,0,SCREENING,2006-12-14,-15
ABC,VS,ABC-04-125,27,SYSBP,Systolic Blood Pressure,SITTING,135,mmHg,135,135,mmHg,Y,1,DAY 1,2006-12-29,1
ABC,VS,ABC-04-125,28,SYSBP,Systolic Blood Pressure,SITTING,106,mmHg,106,106,mmHg,,2,WEEK 2,2007-01-19,22
ABC,VS,ABC-04-125,29,SYSBP,Systolic Blood Pressure,SITTING,112,mmHg,112,112,mmHg,,4,WEEK 4,2007-01-25,28
ABC,VS,ABC-04-125,30,SYSBP,Systolic Blood Pressure,SITTING,119,mmHg,119,119,mmHg,,6,WEEK 6,2007-02-09,43
ABC,VS,ABC-04-125,31,SYSBP,Systolic Blood Pressure,SITTING,115,mmHg,115,115,mmHg,,8,WEEK 8,2007-02-23,57
ABC,VS,ABC-04-125,32,SYSBP,Systolic Blood Pressure,SITTING,120,mmHg,120,120,mmHg,,12,WEEK 12,2007-03-29,91
ABC,VS,ABC-04-125,33,SYSBP,Systolic Blood Pressure,SITTING,120,mmHg,120,120,mmHg,,16,WEEK 16,2007-04-13,106
ABC,VS,ABC-04-125,34,TEMP,Temperature,,36.1,C,36.1,36.1,C,,0,SCREENING,2006-12-14,-15
ABC,VS,ABC-04-125,35,TEMP,Temperature,,36.1,C,36.1,36.1,C,Y,1,DAY 1,2006-12-29,1
ABC,VS,ABC-04-125,36,TEMP,Temperature,,36.3,C,36.3,36.3,C,,2,WEEK 2,2007-01-19,22
ABC,VS,ABC-04-125,37,TEMP,Temperature,,36,C,36,36,C,,4,WEEK 4,2007-01-25,28
ABC,VS,ABC-04-125,38,TEMP,Temperature,,36.1,C,36.1,36.1,C,,6,WEEK 6,2007-02-09,43
ABC,VS,ABC-04-125,39,TEMP,Temperature,,36,C,36,36,C,,8,WEEK 8,2007-02-23,57
ABC,VS,ABC-04-125,40,TEMP,Temperature,,36.1,C,36.1,36.1,C,,12,WEEK 12,2007-03-29,91
ABC,VS,ABC-04-125,41,TEMP,Temperature,,36,C,36,36,C,,16,WEEK 16,2007-04-13,106
ABC,VS,ABC-04-125,42,WEIGHT,Weight,,91,kg,91,91,kg,Y,0,SCREENING,2006-12-14,-15
ABC,VS,ABC-04-126,1,DIABP,Diastolic Blood Pressure,SITTING,66,mmHg,66,66,mmHg,,0,SCREENING,2006-12-13,-20
ABC,VS,ABC-04-126,2,DIABP,Diastolic Blood Pressure,SITTING,70,mmHg,70,70,mmHg,Y,1,DAY 1,2007-01-02,1
ABC,VS,ABC-04-126,3,DIABP,Diastolic Blood Pressure,SITTING,72,mmHg,72,72,mmHg,,2,WEEK 2,2007-01-17,16
ABC,VS,ABC-04-126,4,DIABP,Diastolic Blood Pressure,SITTING,72,mmHg,72,72,mmHg,,4,WEEK 4,2007-02-01,31
ABC,VS,ABC-04-126,5,DIABP,Diastolic Blood Pressure,SITTING,74,mmHg,74,74,mmHg,,6,WEEK 6,2007-02-12,42
ABC,VS,ABC-04-126,6,DIABP,Diastolic Blood Pressure,SITTING,77,mmHg,77,77,mmHg,,8,WEEK 8,2007-03-02,60
ABC,VS,ABC-04-126,7,DIABP,Diastolic Blood Pressure,SITTING,74,mmHg,74,74,mmHg,,12,WEEK 12,2007-03-28,86
ABC,VS,ABC-04-126,8,DIABP,Diastolic Blood Pressure,SITTING,78,mmHg,78,78,mmHg,,16,WEEK 16,2007-04-23,112
ABC,VS,ABC-04-126,9,HEIGHT,Height,,174.5,cm,174.5,174.5,cm,Y,0,SCREENING,2006-12-13,-20
ABC,VS,ABC-04-126,10,PULSE,Pulse Rate,,74,BEATS/MIN,74,74,BEATS/MIN,,0,SCREENING,2006-12-13,-20
ABC,VS,ABC-04-126,11,PULSE,Pulse Rate,,72,BEATS/MIN,72,72,BEATS/MIN,Y,1,DAY 1,2007-01-02,1
ABC,VS,ABC-04-126,12,PULSE,Pulse Rate,,67,BEATS/MIN,67,67,BEATS/MIN,,2,WEEK 2,2007-01-17,16
ABC,VS,ABC-04-126,13,PULSE,Pulse Rate,,80,BEATS/MIN,80,80,BEATS/MIN,,4,WEEK 4,2007-02-01,31
ABC,VS,ABC-04-126,14,PULSE,Pulse Rate,,69,BEATS/MIN,69,69,BEATS/MIN,,6,WEEK 6,2007-02-12,42
ABC,VS,ABC-04-126,15,PULSE,Pulse Rate,,75,BEATS/MIN,75,75,BEATS/MIN,,8,WEEK 8,2007-03-02,60
ABC,VS,ABC-04-126,16,PULSE,Pulse Rate,,79,BEATS/MIN,79,79,BEATS/MIN,,12,WEEK 12,2007-03-28,86
ABC,VS,ABC-04-126,17,PULSE,Pulse Rate,,74,BEATS/MIN,74,74,BEATS/MIN,,16,WEEK 16,2007-04-23,112
ABC,VS,ABC-04-126,18,RESP,Respiratory Rate,,14,BREATHS/MIN,14,14,BREATHS/MIN,,0,SCREENING,2006-12-13,-20
ABC,VS,ABC-04-126,19,RESP,Respiratory Rate,,16,BREATHS/MIN,16,16,BREATHS/MIN,Y,1,DAY 1,2007-01-02,1
ABC,VS,ABC-04-126,20,RESP,Respiratory Rate,,14,BREATHS/MIN,14,14,BREATHS/MIN,,2,WEEK 2,2007-01-17,16
ABC,VS,ABC-04-126,21,RESP,Respiratory Rate,,16,BREATHS/MIN,16,16,BREATHS/MIN,,4,WEEK 4,2007-02-01,31
ABC,VS,ABC-04-126,22,RESP,Respiratory Rate,,16,BREATHS/MIN,16,16,BREATHS/MIN,,6,WEEK 6,2007-02-12,42
ABC,VS,ABC-04-126,23,RESP,Respiratory Rate,,16,BREATHS/MIN,16,16,BREATHS/MIN,,8,WEEK 8,2007-03-02,60
ABC,VS,ABC-04-126,24,RESP,Respiratory Rate,,16,BREATHS/MIN,16,16,BREATHS/MIN,,12,WEEK 12,2007-03-28,86
ABC,VS,ABC-04-126,25,RESP,Respiratory Rate,,16,BREATHS/MIN,16,16,BREATHS/MIN,,16,WEEK 16,2007-04-23,112
ABC,VS,ABC-04-126,26,SYSBP,Systolic Blood Pressure,SITTING,101,mmHg,101,101,mmHg,,0,SCREENING,2006-12-13,-20
ABC,VS,ABC-04-126,27,SYSBP,Systolic Blood Pressure,SITTING,98,mmHg,98,98,mmHg,Y,1,DAY 1,2007-01-02,1
ABC,VS,ABC-04-126,28,SYSBP,Systolic Blood Pressure,SITTING,112,mmHg,112,112,mmHg,,2,WEEK 2,2007-01-17,16
ABC,VS,ABC-04-126,29,SYSBP,Systolic Blood Pressure,SITTING,110,mmHg,110,110,mmHg,,4,WEEK 4,2007-02-01,31
ABC,VS,ABC-04-126,30,SYSBP,Systolic Blood Pressure,SITTING,111,mmHg,111,111,mmHg,,6,WEEK 6,2007-02-12,42
ABC,VS,ABC-04-126,31,SYSBP,Systolic Blood Pressure,SITTING,122,mmHg,122,122,mmHg,,8,WEEK 8,2007-03-02,60
ABC,VS,ABC-04-126,32,SYSBP,Systolic Blood Pressure,SITTING,112,mmHg,112,112,mmHg,,12,WEEK 12,2007-03-28,86
ABC,VS,ABC-04-126,33,SYSBP,Systolic Blood Pressure,SITTING,106,mmHg,106,106,mmHg,,16,WEEK 16,2007-04-23,112
ABC,VS,ABC-04-126,34,TEMP,Temperature,,36.2,C,36.2,36.2,C,,0,SCREENING,2006-12-13,-20
ABC,VS,ABC-04-126,35,TEMP,Temperature,,36.3,C,36.3,36.3,C,Y,1,DAY 1,2007-01-02,1
ABC,VS,ABC-04-126,36,TEMP,Temperature,,36.3,C,36.3,36.3,C,,2,WEEK 2,2007-01-17,16
ABC,VS,ABC-04-126,37,TEMP,Temperature,,36.1,C,36.1,36.1,C,,4,WEEK 4,2007-02-01,31
ABC,VS,ABC-04-126,38,TEMP,Temperature,,36.5,C,36.5,36.5,C,,6,WEEK 6,2007-02-12,42
ABC,VS,ABC-04-126,39,TEMP,Temperature,,36.4,C,36.4,36.4,C,,8,WEEK 8,2007-03-02,60
ABC,VS,ABC-04-126,40,TEMP,Temperature,,36.4,C,36.4,36.4,C,,12,WEEK 12,2007-03-28,86
ABC,VS,ABC-04-126,41,TEMP,Temperature,,36.3,C,36.3,36.3,C,,16,WEEK 16,2007-04-23,112
ABC,VS,ABC-04-126,42,WEIGHT,Weight,,73.8,kg,73.8,73.8,kg,Y,0,SCREENING,2006-12-13,-20
ABC,VS,ABC-04-127,1,DIABP,Diastolic Blood Pressure,SITTING,74,mmHg,74,74,mmHg,,0,SCREENING,2006-12-14,-20
ABC,VS,ABC-04-127,2,DIABP,Diastolic Blood Pressure,SITTING,82,mmHg,82,82,mmHg,Y,1,DAY 1,2007-01-03,1
ABC,VS,ABC-04-127,3,DIABP,Diastolic Blood Pressure,SITTING,74,mmHg,74,74,mmHg,,2,WEEK 2,2007-01-19,17
ABC,VS,ABC-04-127,4,DIABP,Diastolic Blood Pressure,SITTING,83,mmHg,83,83,mmHg,,4,WEEK 4,2007-02-01,30
ABC,VS,ABC-04-127,5,DIABP,Diastolic Blood Pressure,SITTING,84,mmHg,84,84,mmHg,,6,WEEK 6,2007-02-13,42
ABC,VS,ABC-04-127,6,DIABP,Diastolic Blood Pressure,SITTING,87,mmHg,87,87,mmHg,,8,WEEK 8,2007-03-08,65
ABC,VS,ABC-04-127,7,DIABP,Diastolic Blood Pressure,SITTING,81,mmHg,81,81,mmHg,,12,WEEK 12,2007-04-06,94
ABC,VS,ABC-04-127,8,DIABP,Diastolic Blood Pressure,SITTING,81,mmHg,81,81,mmHg,,16,WEEK 16,2007-05-11,129
ABC,VS,ABC-04-127,9,HEIGHT,Height,,167,cm,167,167,cm,Y,0,SCREENING,2006-12-14,-20
ABC,VS,ABC-04-127,10,PULSE,Pulse Rate,,60,BEATS/MIN,60,60,BEATS/MIN,,0,SCREENING,2006-12-14,-20
ABC,VS,ABC-04-127,11,PULSE,Pulse Rate,,67,BEATS/MIN,67,67,BEATS/MIN,Y,1,DAY 1,2007-01-03,1
ABC,VS,ABC-04-127,12,PULSE,Pulse Rate,,64,BEATS/MIN,64,64,BEATS/MIN,,2,WEEK 2,2007-01-19,17
ABC,VS,ABC-04-127,13,PULSE,Pulse Rate,,66,BEATS/MIN,66,66,BEATS/MIN,,4,WEEK 4,2007-02-01,30
ABC,VS,ABC-04-127,14,PULSE,Pulse Rate,,84,BEATS/MIN,84,84,BEATS/MIN,,6,WEEK 6,2007-02-13,42
ABC,VS,ABC-04-127,15,PULSE,Pulse Rate,,65,BEATS/MIN,65,65,BEATS/MIN,,8,WEEK 8,2007-03-08,65
ABC,VS,ABC-04-127,16,PULSE,Pulse Rate,,84,BEATS/MIN,84,84,BEATS/MIN,,12,WEEK 12,2007-04-06,94
ABC,VS,ABC-04-127,17,PULSE,Pulse Rate,,69,BEATS/MIN,69,69,BEATS/MIN,,16,WEEK 16,2007-05-11,129
ABC,VS,ABC-04-127,18,RESP,Respiratory Rate,,14,BREATHS/MIN,14,14,BREATHS/MIN,,0,SCREENING,2006-12-14,-20
ABC,VS,ABC-04-127,19,RESP,Respiratory Rate,,16,BREATHS/MIN,16,16,BREATHS/MIN,Y,1,DAY 1,2007-01-03,1
ABC,VS,ABC-04-127,20,RESP,Respiratory Rate,,16,BREATHS/MIN,16,16,BREATHS/MIN,,2,WEEK 2,2007-01-19,17
ABC,VS,ABC-04-127,21,RESP,Respiratory Rate,,16,BREATHS/MIN,16,16,BREATHS/MIN,,4,WEEK 4,2007-02-01,30
ABC,VS,ABC-04-127,22,RESP,Respiratory Rate,,16,BREATHS/MIN,16,16,BREATHS/MIN,,6,WEEK 6,2007-02-13,42
ABC,VS,ABC-04-127,23,RESP,Respiratory Rate,,16,BREATHS/MIN,16,16,BREATHS/MIN,,8,WEEK 8,2007-03-08,65
ABC,VS,ABC-04-127,24,RESP,Respiratory Rate,,16,BREATHS/MIN,16,16,BREATHS/MIN,,12,WEEK 12,2007-04-06,94
ABC,VS,ABC-04-127,25,RESP,Respiratory Rate,,20,BREATHS/MIN,20,20,BREATHS/MIN,,16,WEEK 16,2007-05-11,129
ABC,VS,ABC-04-127,26,SYSBP,Systolic Blood Pressure,SITTING,130,mmHg,130,130,mmHg,,0,SCREENING,2006-12-14,-20
ABC,VS,ABC-04-127,27,SYSBP,Systolic Blood Pressure,SITTING,141,mmHg,141,141,mmHg,Y,1,DAY 1,2007-01-03,1
ABC,VS,ABC-04-127,28,SYSBP,Systolic Blood Pressure,SITTING,120,mmHg,120,120,mmHg,,2,WEEK 2,2007-01-19,17
ABC,VS,ABC-04-127,29,SYSBP,Systolic Blood Pressure,SITTING,135,mmHg,135,135,mmHg,,4,WEEK 4,2007-02-01,30
ABC,VS,ABC-04-127,30,SYSBP,Systolic Blood Pressure,SITTING,151,mmHg,151,151,mmHg,,6,WEEK 6,2007-02-13,42
ABC,VS,ABC-04-127,31,SYSBP,Systolic Blood Pressure,SITTING,148,mmHg,148,148,mmHg,,8,WEEK 8,2007-03-08,65
ABC,VS,ABC-04-127,32,SYSBP,Systolic Blood Pressure,SITTING,127,mmHg,127,127,mmHg,,12,WEEK 12,2007-04-06,94
ABC,VS,ABC-04-127,33,SYSBP,Systolic Blood Pressure,SITTING,126,mmHg,126,126,mmHg,,16,WEEK 16,2007-05-11,129
ABC,VS,ABC-04-127,34,TEMP,Temperature,,36.3,C,36.3,36.3,C,,0,SCREENING,2006-12-14,-20
ABC,VS,ABC-04-127,35,TEMP,Temperature,,36.4,C,36.4,36.4,C,Y,1,DAY 1,2007-01-03,1
ABC,VS,ABC-04-127,36,TEMP,Temperature,,36.1,C,36.1,36.1,C,,2,WEEK 2,2007-01-19,17
ABC,VS,ABC-04-127,37,TEMP,Temperature,,36.3,C,36.3,36.3,C,,4,WEEK 4,2007-02-01,30
ABC,VS,ABC-04-127,38,TEMP,Temperature,,36.1,C,36.1,36.1,C,,6,WEEK 6,2007-02-13,42
ABC,VS,ABC-04-127,39,TEMP,Temperature,,36.6,C,36.6,36.6,C,,8,WEEK 8,2007-03-08,65
ABC,VS,ABC-04-127,40,TEMP,Temperature,,36.1,C,36.1,36.1,C,,12,WEEK 12,2007-04-06,94
ABC,VS,ABC-04-127,41,TEMP,Temperature,,36.1,C,36.1,36.1,C,,16,WEEK 16,2007-05-11,129
ABC,VS,ABC-04-127,42,WEIGHT,Weight,,91.1,kg,91.1,91.1,kg,Y,0,SCREENING,2006-12-14,-20
ABC,VS,ABC-04-128,1,DIABP,Diastolic Blood Pressure,SITTING,59,mmHg,59,59,mmHg,,0,SCREENING,2006-12-21,-14
ABC,VS,ABC-04-128,2,DIABP,Diastolic Blood Pressure,SITTING,70,mmHg,70,70,mmHg,Y,1,DAY 1,2007-01-04,1
ABC,VS,ABC-04-128,3,DIABP,Diastolic Blood Pressure,SITTING,66,mmHg,66,66,mmHg,,2,WEEK 2,2007-01-19,16
ABC,VS,ABC-04-128,4,HEIGHT,Height,,177,cm,177,177,cm,Y,0,SCREENING,2006-12-21,-14
ABC,VS,ABC-04-128,5,PULSE,Pulse Rate,,58,BEATS/MIN,58,58,BEATS/MIN,,0,SCREENING,2006-12-21,-14
ABC,VS,ABC-04-128,6,PULSE,Pulse Rate,,74,BEATS/MIN,74,74,BEATS/MIN,Y,1,DAY 1,2007-01-04,1
ABC,VS,ABC-04-128,7,PULSE,Pulse Rate,,62,BEATS/MIN,62,62,BEATS/MIN,,2,WEEK 2,2007-01-19,16
ABC,VS,ABC-04-128,8,RESP,Respiratory Rate,,16,BREATHS/MIN,16,16,BREATHS/MIN,Y,1,DAY 1,2007-01-04,1
ABC,VS,ABC-04-128,9,RESP,Respiratory Rate,,16,BREATHS/MIN,16,16,BREATHS/MIN,,2,WEEK 2,2007-01-19,16
ABC,VS,ABC-04-128,10,SYSBP,Systolic Blood Pressure,SITTING,97,mmHg,97,97,mmHg,,0,SCREENING,2006-12-21,-14
ABC,VS,ABC-04-128,11,SYSBP,Systolic Blood Pressure,SITTING,119,mmHg,119,119,mmHg,Y,1,DAY 1,2007-01-04,1
ABC,VS,ABC-04-128,12,SYSBP,Systolic Blood Pressure,SITTING,108,mmHg,108,108,mmHg,,2,WEEK 2,2007-01-19,16
ABC,VS,ABC-04-128,13,TEMP,Temperature,,36.4,C,36.4,36.4,C,,0,SCREENING,2006-12-21,-14
ABC,VS,ABC-04-128,14,TEMP,Temperature,,36.2,C,36.2,36.2,C,Y,1,DAY 1,2007-01-04,1
ABC,VS,ABC-04-128,15,TEMP,Temperature,,36.1,C,36.1,36.1,C,,2,WEEK 2,2007-01-19,16
ABC,VS,ABC-04-128,16,WEIGHT,Weight,,57.7,kg,57.7,57.7,kg,Y,0,SCREENING,2006-12-21,-14
ABC,VS,ABC-04-129,1,DIABP,Diastolic Blood Pressure,SITTING,84,mmHg,84,84,mmHg,,0,SCREENING,2006-12-19,-17
ABC,VS,ABC-04-129,2,DIABP,Diastolic Blood Pressure,SITTING,69,mmHg,69,69,mmHg,Y,1,DAY 1,2007-01-05,1
ABC,VS,ABC-04-129,3,DIABP,Diastolic Blood Pressure,SITTING,76,mmHg,76,76,mmHg,,2,WEEK 2,2007-01-19,15
ABC,VS,ABC-04-129,4,DIABP,Diastolic Blood Pressure,SITTING,86,mmHg,86,86,mmHg,,4,WEEK 4,2007-02-01,28
ABC,VS,ABC-04-129,5,DIABP,Diastolic Blood Pressure,SITTING,68,mmHg,68,68,mmHg,,6,WEEK 6,2007-02-15,42
ABC,VS,ABC-04-129,6,DIABP,Diastolic Blood Pressure,SITTING,67,mmHg,67,67,mmHg,,8,WEEK 8,2007-03-01,56
ABC,VS,ABC-04-129,7,DIABP,Diastolic Blood Pressure,SITTING,60,mmHg,60,60,mmHg,,12,WEEK 12,2007-03-29,84
ABC,VS,ABC-04-129,8,DIABP,Diastolic Blood Pressure,SITTING,56,mmHg,56,56,mmHg,,16,WEEK 16,2007-04-27,113
ABC,VS,ABC-04-129,9,HEIGHT,Height,,172,cm,172,172,cm,Y,0,SCREENING,2006-12-19,-17
ABC,VS,ABC-04-129,10,PULSE,Pulse Rate,,64,BEATS/MIN,64,64,BEATS/MIN,,0,SCREENING,2006-12-19,-17
ABC,VS,ABC-04-129,11,PULSE,Pulse Rate,,69,BEATS/MIN,69,69,BEATS/MIN,Y,1,DAY 1,2007-01-05,1
ABC,VS,ABC-04-129,12,PULSE,Pulse Rate,,75,BEATS/MIN,75,75,BEATS/MIN,,2,WEEK 2,2007-01-19,15
ABC,VS,ABC-04-129,13,PULSE,Pulse Rate,,80,BEATS/MIN,80,80,BEATS/MIN,,4,WEEK 4,2007-02-01,28
ABC,VS,ABC-04-129,14,PULSE,Pulse Rate,,60,BEATS/MIN,60,60,BEATS/MIN,,6,WEEK 6,2007-02-15,42
ABC,VS,ABC-04-129,15,PULSE,Pulse Rate,,75,BEATS/MIN,75,75,BEATS/MIN,,8,WEEK 8,2007-03-01,56
ABC,VS,ABC-04-129,16,PULSE,Pulse Rate,,64,BEATS/MIN,64,64,BEATS/MIN,,12,WEEK 12,2007-03-29,84
ABC,VS,ABC-04-129,17,PULSE,Pulse Rate,,64,BEATS/MIN,64,64,BEATS/MIN,,16,WEEK 16,2007-04-27,113
ABC,VS,ABC-04-129,18,RESP,Respiratory Rate,,20,BREATHS/MIN,20,20,BREATHS/MIN,,0,SCREENING,2006-12-19,-17
ABC,VS,ABC-04-129,19,RESP,Respiratory Rate,,16,BREATHS/MIN,16,16,BREATHS/MIN,Y,1,DAY 1,2007-01-05,1
ABC,VS,ABC-04-129,20,RESP,Respiratory Rate,,16,BREATHS/MIN,16,16,BREATHS/MIN,,2,WEEK 2,2007-01-19,15
ABC,VS,ABC-04-129,21,RESP,Respiratory Rate,,20,BREATHS/MIN,20,20,BREATHS/MIN,,4,WEEK 4,2007-02-01,28
ABC,VS,ABC-04-129,22,RESP,Respiratory Rate,,12,BREATHS/MIN,12,12,BREATHS/MIN,,6,WEEK 6,2007-02-15,42
ABC,VS,ABC-04-129,23,RESP,Respiratory Rate,,20,BREATHS/MIN,20,20,BREATHS/MIN,,8,WEEK 8,2007-03-01,56
ABC,VS,ABC-04-129,24,RESP,Respiratory Rate,,16,BREATHS/MIN,16,16,BREATHS/MIN,,12,WEEK 12,2007-03-29,84
ABC,VS,ABC-04-129,25,RESP,Respiratory Rate,,16,BREATHS/MIN,16,16,BREATHS/MIN,,16,WEEK 16,2007-04-27,113
ABC,VS,ABC-04-129,26,SYSBP,Systolic Blood Pressure,SITTING,116,mmHg,116,116,mmHg,,0,SCREENING,2006-12-19,-17
ABC,VS,ABC-04-129,27,SYSBP,Systolic Blood Pressure,SITTING,111,mmHg,111,111,mmHg,Y,1,DAY 1,2007-01-05,1
ABC,VS,ABC-04-129,28,SYSBP,Systolic Blood Pressure,SITTING,118,mmHg,118,118,mmHg,,2,WEEK 2,2007-01-19,15
ABC,VS,ABC-04-129,29,SYSBP,Systolic Blood Pressure,SITTING,128,mmHg,128,128,mmHg,,4,WEEK 4,2007-02-01,28
ABC,VS,ABC-04-129,30,SYSBP,Systolic Blood Pressure,SITTING,114,mmHg,114,114,mmHg,,6,WEEK 6,2007-02-15,42
ABC,VS,ABC-04-129,31,SYSBP,Systolic Blood Pressure,SITTING,110,mmHg,110,110,mmHg,,8,WEEK 8,2007-03-01,56
ABC,VS,ABC-04-129,32,SYSBP,Systolic Blood Pressure,SITTING,102,mmHg,102,102,mmHg,,12,WEEK 12,2007-03-29,84
ABC,VS,ABC-04-129,33,SYSBP,Systolic Blood Pressure,SITTING,82,mmHg,82,82,mmHg,,16,WEEK 16,2007-04-27,113
ABC,VS,ABC-04-129,34,TEMP,Temperature,,36,C,36,36,C,,0,SCREENING,2006-12-19,-17
ABC,VS,ABC-04-129,35,TEMP,Temperature,,36.2,C,36.2,36.2,C,Y,1,DAY 1,2007-01-05,1
ABC,VS,ABC-04-129,36,TEMP,Temperature,,36.2,C,36.2,36.2,C,,2,WEEK 2,2007-01-19,15
ABC,VS,ABC-04-129,37,TEMP,Temperature,,36.1,C,36.1,36.1,C,,4,WEEK 4,2007-02-01,28
ABC,VS,ABC-04-129,38,TEMP,Temperature,,36.3,C,36.3,36.3,C,,6,WEEK 6,2007-02-15,42
ABC,VS,ABC-04-129,39,TEMP,Temperature,,36.3,C,36.3,36.3,C,,8,WEEK 8,2007-03-01,56
ABC,VS,ABC-04-129,40,TEMP,Temperature,,36.3,C,36.3,36.3,C,,12,WEEK 12,2007-03-29,84
ABC,VS,ABC-04-129,41,TEMP,Temperature,,36.4,C,36.4,36.4,C,,16,WEEK 16,2007-04-27,113
ABC,VS,ABC-04-129,42,WEIGHT,Weight,,68.9,kg,68.9,68.9,kg,Y,0,SCREENING,2006-12-19,-17
ABC,VS,ABC-04-130,1,DIABP,Diastolic Blood Pressure,SITTING,84,mmHg,84,84,mmHg,,0,SCREENING,2006-01-30,-343
ABC,VS,ABC-04-130,2,DIABP,Diastolic Blood Pressure,SITTING,68,mmHg,68,68,mmHg,Y,1,DAY 1,2007-01-08,1
ABC,VS,ABC-04-130,3,DIABP,Diastolic Blood Pressure,SITTING,91,mmHg,91,91,mmHg,,2,WEEK 2,2007-01-23,16
ABC,VS,ABC-04-130,4,DIABP,Diastolic Blood Pressure,SITTING,80,mmHg,80,80,mmHg,,4,WEEK 4,2007-02-07,31
ABC,VS,ABC-04-130,5,DIABP,Diastolic Blood Pressure,SITTING,62,mmHg,62,62,mmHg,,6,WEEK 6,2007-02-20,44
ABC,VS,ABC-04-130,6,DIABP,Diastolic Blood Pressure,SITTING,82,mmHg,82,82,mmHg,,8,WEEK 8,2007-03-06,58
ABC,VS,ABC-04-130,7,DIABP,Diastolic Blood Pressure,SITTING,68,mmHg,68,68,mmHg,,12,WEEK 12,2007-04-03,86
ABC,VS,ABC-04-130,8,DIABP,Diastolic Blood Pressure,SITTING,81,mmHg,81,81,mmHg,,16,WEEK 16,2007-05-02,115
ABC,VS,ABC-04-130,9,HEIGHT,Height,,178,cm,178,178,cm,Y,0,SCREENING,2006-01-30,-343
ABC,VS,ABC-04-130,10,PULSE,Pulse Rate,,62,BEATS/MIN,62,62,BEATS/MIN,,0,SCREENING,2006-01-30,-343
ABC,VS,ABC-04-130,11,PULSE,Pulse Rate,,71,BEATS/MIN,71,71,BEATS/MIN,Y,1,DAY 1,2007-01-08,1
ABC,VS,ABC-04-130,12,PULSE,Pulse Rate,,67,BEATS/MIN,67,67,BEATS/MIN,,2,WEEK 2,2007-01-23,16
ABC,VS,ABC-04-130,13,PULSE,Pulse Rate,,62,BEATS/MIN,62,62,BEATS/MIN,,4,WEEK 4,2007-02-07,31
ABC,VS,ABC-04-130,14,PULSE,Pulse Rate,,64,BEATS/MIN,64,64,BEATS/MIN,,6,WEEK 6,2007-02-20,44
ABC,VS,ABC-04-130,15,PULSE,Pulse Rate,,65,BEATS/MIN,65,65,BEATS/MIN,,8,WEEK 8,2007-03-06,58
ABC,VS,ABC-04-130,16,PULSE,Pulse Rate,,64,BEATS/MIN,64,64,BEATS/MIN,,12,WEEK 12,2007-04-03,86
ABC,VS,ABC-04-130,17,PULSE,Pulse Rate,,69,BEATS/MIN,69,69,BEATS/MIN,,16,WEEK 16,2007-05-02,115
ABC,VS,ABC-04-130,18,RESP,Respiratory Rate,,12,BREATHS/MIN,12,12,BREATHS/MIN,,0,SCREENING,2006-01-30,-343
ABC,VS,ABC-04-130,19,RESP,Respiratory Rate,,16,BREATHS/MIN,16,16,BREATHS/MIN,Y,1,DAY 1,2007-01-08,1
ABC,VS,ABC-04-130,20,RESP,Respiratory Rate,,16,BREATHS/MIN,16,16,BREATHS/MIN,,2,WEEK 2,2007-01-23,16
ABC,VS,ABC-04-130,21,RESP,Respiratory Rate,,16,BREATHS/MIN,16,16,BREATHS/MIN,,4,WEEK 4,2007-02-07,31
ABC,VS,ABC-04-130,22,RESP,Respiratory Rate,,16,BREATHS/MIN,16,16,BREATHS/MIN,,6,WEEK 6,2007-02-20,44
ABC,VS,ABC-04-130,23,RESP,Respiratory Rate,,16,BREATHS/MIN,16,16,BREATHS/MIN,,8,WEEK 8,2007-03-06,58
ABC,VS,ABC-04-130,24,RESP,Respiratory Rate,,12,BREATHS/MIN,12,12,BREATHS/MIN,,12,WEEK 12,2007-04-03,86
ABC,VS,ABC-04-130,25,RESP,Respiratory Rate,,16,BREATHS/MIN,16,16,BREATHS/MIN,,16,WEEK 16,2007-05-02,115
ABC,VS,ABC-04-130,26,SYSBP,Systolic Blood Pressure,SITTING,122,mmHg,122,122,mmHg,,0,SCREENING,2006-01-30,-343
ABC,VS,ABC-04-130,27,SYSBP,Systolic Blood Pressure,SITTING,112,mmHg,112,112,mmHg,Y,1,DAY 1,2007-01-08,1
ABC,VS,ABC-04-130,28,SYSBP,Systolic Blood Pressure,SITTING,130,mmHg,130,130,mmHg,,2,WEEK 2,2007-01-23,16
ABC,VS,ABC-04-130,29,SYSBP,Systolic Blood Pressure,SITTING,123,mmHg,123,123,mmHg,,4,WEEK 4,2007-02-07,31
ABC,VS,ABC-04-130,30,SYSBP,Systolic Blood Pressure,SITTING,105,mmHg,105,105,mmHg,,6,WEEK 6,2007-02-20,44
ABC,VS,ABC-04-130,31,SYSBP,Systolic Blood Pressure,SITTING,124,mmHg,124,124,mmHg,,8,WEEK 8,2007-03-06,58
ABC,VS,ABC-04-130,32,SYSBP,Systolic Blood Pressure,SITTING,108,mmHg,108,108,mmHg,,12,WEEK 12,2007-04-03,86
ABC,VS,ABC-04-130,33,SYSBP,Systolic Blood Pressure,SITTING,115,mmHg,115,115,mmHg,,16,WEEK 16,2007-05-02,115
ABC,VS,ABC-04-130,34,TEMP,Temperature,,36.3,C,36.3,36.3,C,,0,SCREENING,2006-01-30,-343
ABC,VS,ABC-04-130,35,TEMP,Temperature,,36.2,C,36.2,36.2,C,Y,1,DAY 1,2007-01-08,1
ABC,VS,ABC-04-130,36,TEMP,Temperature,,36.5,C,36.5,36.5,C,,2,WEEK 2,2007-01-23,16
ABC,VS,ABC-04-130,37,TEMP,Temperature,,36,C,36,36,C,,4,WEEK 4,2007-02-07,31
ABC,VS,ABC-04-130,38,TEMP,Temperature,,36.1,C,36.1,36.1,C,,6,WEEK 6,2007-02-20,44
ABC,VS,ABC-04-130,39,TEMP,Temperature,,36.4,C,36.4,36.4,C,,8,WEEK 8,2007-03-06,58
ABC,VS,ABC-04-130,40,TEMP,Temperature,,36.3,C,36.3,36.3,C,,12,WEEK 12,2007-04-03,86
ABC,VS,ABC-04-130,41,TEMP,Temperature,,36.1,C,36.1,36.1,C,,16,WEEK 16,2007-05-02,115
ABC,VS,ABC-04-130,42,WEIGHT,Weight,,83.8,kg,83.8,83.8,kg,Y,0,SCREENING,2006-01-30,-343
ABC,VS,ABC-04-131,1,DIABP,Diastolic Blood Pressure,SITTING,70,mmHg,70,70,mmHg,,0,SCREENING,2006-12-18,-23
ABC,VS,ABC-04-131,2,DIABP,Diastolic Blood Pressure,SITTING,77,mmHg,77,77,mmHg,Y,1,DAY 1,2007-01-10,1
ABC,VS,ABC-04-131,3,DIABP,Diastolic Blood Pressure,SITTING,73,mmHg,73,73,mmHg,,2,WEEK 2,2007-01-26,17
ABC,VS,ABC-04-131,4,DIABP,Diastolic Blood Pressure,SITTING,66,mmHg,66,66,mmHg,,4,WEEK 4,2007-02-07,29
ABC,VS,ABC-04-131,5,DIABP,Diastolic Blood Pressure,SITTING,77,mmHg,77,77,mmHg,,6,WEEK 6,2007-02-21,43
ABC,VS,ABC-04-131,6,DIABP,Diastolic Blood Pressure,SITTING,72,mmHg,72,72,mmHg,,8,WEEK 8,2007-03-07,57
ABC,VS,ABC-04-131,7,DIABP,Diastolic Blood Pressure,SITTING,77,mmHg,77,77,mmHg,,12,WEEK 12,2007-04-05,86
ABC,VS,ABC-04-131,8,DIABP,Diastolic Blood Pressure,SITTING,61,mmHg,61,61,mmHg,,16,WEEK 16,2007-05-02,113
ABC,VS,ABC-04-131,9,HEIGHT,Height,,180,cm,180,180,cm,Y,0,SCREENING,2006-12-18,-23
ABC,VS,ABC-04-131,10,PULSE,Pulse Rate,,60,BEATS/MIN,60,60,BEATS/MIN,,0,SCREENING,2006-12-18,-23
ABC,VS,ABC-04-131,11,PULSE,Pulse Rate,,84,BEATS/MIN,84,84,BEATS/MIN,Y,1,DAY 1,2007-01-10,1
ABC,VS,ABC-04-131,12,PULSE,Pulse Rate,,71,BEATS/MIN,71,71,BEATS/MIN,,2,WEEK 2,2007-01-26,17
ABC,VS,ABC-04-131,13,PULSE,Pulse Rate,,68,BEATS/MIN,68,68,BEATS/MIN,,4,WEEK 4,2007-02-07,29
ABC,VS,ABC-04-131,14,PULSE,Pulse Rate,,57,BEATS/MIN,57,57,BEATS/MIN,,6,WEEK 6,2007-02-21,43
ABC,VS,ABC-04-131,15,PULSE,Pulse Rate,,66,BEATS/MIN,66,66,BEATS/MIN,,8,WEEK 8,2007-03-07,57
ABC,VS,ABC-04-131,16,PULSE,Pulse Rate,,66,BEATS/MIN,66,66,BEATS/MIN,,12,WEEK 12,2007-04-05,86
ABC,VS,ABC-04-131,17,PULSE,Pulse Rate,,52,BEATS/MIN,52,52,BEATS/MIN,,16,WEEK 16,2007-05-02,113
ABC,VS,ABC-04-131,18,RESP,Respiratory Rate,,14,BREATHS/MIN,14,14,BREATHS/MIN,,0,SCREENING,2006-12-18,-23
ABC,VS,ABC-04-131,19,RESP,Respiratory Rate,,16,BREATHS/MIN,16,16,BREATHS/MIN,Y,1,DAY 1,2007-01-10,1
ABC,VS,ABC-04-131,20,RESP,Respiratory Rate,,16,BREATHS/MIN,16,16,BREATHS/MIN,,2,WEEK 2,2007-01-26,17
ABC,VS,ABC-04-131,21,RESP,Respiratory Rate,,16,BREATHS/MIN,16,16,BREATHS/MIN,,4,WEEK 4,2007-02-07,29
ABC,VS,ABC-04-131,22,RESP,Respiratory Rate,,16,BREATHS/MIN,16,16,BREATHS/MIN,,6,WEEK 6,2007-02-21,43
ABC,VS,ABC-04-131,23,RESP,Respiratory Rate,,16,BREATHS/MIN,16,16,BREATHS/MIN,,8,WEEK 8,2007-03-07,57
ABC,VS,ABC-04-131,24,RESP,Respiratory Rate,,16,BREATHS/MIN,16,16,BREATHS/MIN,,12,WEEK 12,2007-04-05,86
ABC,VS,ABC-04-131,25,RESP,Respiratory Rate,,16,BREATHS/MIN,16,16,BREATHS/MIN,,16,WEEK 16,2007-05-02,113
ABC,VS,ABC-04-131,26,SYSBP,Systolic Blood Pressure,SITTING,110,mmHg,110,110,mmHg,,0,SCREENING,2006-12-18,-23
ABC,VS,ABC-04-131,27,SYSBP,Systolic Blood Pressure,SITTING,122,mmHg,122,122,mmHg,Y,1,DAY 1,2007-01-10,1
ABC,VS,ABC-04-131,28,SYSBP,Systolic Blood Pressure,SITTING,124,mmHg,124,124,mmHg,,2,WEEK 2,2007-01-26,17
ABC,VS,ABC-04-131,29,SYSBP,Systolic Blood Pressure,SITTING,118,mmHg,118,118,mmHg,,4,WEEK 4,2007-02-07,29
ABC,VS,ABC-04-131,30,SYSBP,Systolic Blood Pressure,SITTING,131,mmHg,131,131,mmHg,,6,WEEK 6,2007-02-21,43
ABC,VS,ABC-04-131,31,SYSBP,Systolic Blood Pressure,SITTING,122,mmHg,122,122,mmHg,,8,WEEK 8,2007-03-07,57
ABC,VS,ABC-04-131,32,SYSBP,Systolic Blood Pressure,SITTING,139,mmHg,139,139,mmHg,,12,WEEK 12,2007-04-05,86
ABC,VS,ABC-04-131,33,SYSBP,Systolic Blood Pressure,SITTING,114,mmHg,114,114,mmHg,,16,WEEK 16,2007-05-02,113
ABC,VS,ABC-04-131,34,TEMP,Temperature,,36.7,C,36.7,36.7,C,,0,SCREENING,2006-12-18,-23
ABC,VS,ABC-04-131,35,TEMP,Temperature,,36,C,36,36,C,Y,1,DAY 1,2007-01-10,1
ABC,VS,ABC-04-131,36,TEMP,Temperature,,36.2,C,36.2,36.2,C,,2,WEEK 2,2007-01-26,17
ABC,VS,ABC-04-131,37,TEMP,Temperature,,35.5,C,35.5,35.5,C,,4,WEEK 4,2007-02-07,29
ABC,VS,ABC-04-131,38,TEMP,Temperature,,35.6,C,35.6,35.6,C,,6,WEEK 6,2007-02-21,43
ABC,VS,ABC-04-131,39,TEMP,Temperature,,36.1,C,36.1,36.1,C,,8,WEEK 8,2007-03-07,57
ABC,VS,ABC-04-131,40,TEMP,Temperature,,36.3,C,36.3,36.3,C,,12,WEEK 12,2007-04-05,86
ABC,VS,ABC-04-131,41,TEMP,Temperature,,36.4,C,36.4,36.4,C,,16,WEEK 16,2007-05-02,113
ABC,VS,ABC-04-131,42,WEIGHT,Weight,,94.2,kg,94.2,94.2,kg,Y,0,SCREENING,2006-12-18,-23
ABC,VS,ABC-06-065,1,DIABP,Diastolic Blood Pressure,SITTING,70,mmHg,70,70,mmHg,,0,SCREENING,2006-10-27,-12
ABC,VS,ABC-06-065,2,DIABP,Diastolic Blood Pressure,SITTING,78,mmHg,78,78,mmHg,Y,1,DAY 1,2006-11-08,1
ABC,VS,ABC-06-065,3,DIABP,Diastolic Blood Pressure,SITTING,75,mmHg,75,75,mmHg,,2,WEEK 2,2006-11-22,15
ABC,VS,ABC-06-065,4,DIABP,Diastolic Blood Pressure,SITTING,76,mmHg,76,76,mmHg,,4,WEEK 4,2006-12-06,29
ABC,VS,ABC-06-065,5,DIABP,Diastolic Blood Pressure,SITTING,70,mmHg,70,70,mmHg,,6,WEEK 6,2006-12-20,43
ABC,VS,ABC-06-065,6,DIABP,Diastolic Blood Pressure,SITTING,80,mmHg,80,80,mmHg,,8,WEEK 8,2007-01-03,57
ABC,VS,ABC-06-065,7,DIABP,Diastolic Blood Pressure,SITTING,75,mmHg,75,75,mmHg,,12,WEEK 12,2007-01-31,85
ABC,VS,ABC-06-065,8,DIABP,Diastolic Blood Pressure,SITTING,80,mmHg,80,80,mmHg,,16,WEEK 16,2007-02-28,113
ABC,VS,ABC-06-065,9,HEIGHT,Height,,163,cm,163,163,cm,Y,0,SCREENING,2006-10-27,-12
ABC,VS,ABC-06-065,10,PULSE,Pulse Rate,,64,BEATS/MIN,64,64,BEATS/MIN,,0,SCREENING,2006-10-27,-12
ABC,VS,ABC-06-065,11,PULSE,Pulse Rate,,68,BEATS/MIN,68,68,BEATS/MIN,Y,1,DAY 1,2006-11-08,1
ABC,VS,ABC-06-065,12,PULSE,Pulse Rate,,60,BEATS/MIN,60,60,BEATS/MIN,,2,WEEK 2,2006-11-22,15
ABC,VS,ABC-06-065,13,PULSE,Pulse Rate,,60,BEATS/MIN,60,60,BEATS/MIN,,4,WEEK 4,2006-12-06,29
ABC,VS,ABC-06-065,14,PULSE,Pulse Rate,,60,BEATS/MIN,60,60,BEATS/MIN,,6,WEEK 6,2006-12-20,43
ABC,VS,ABC-06-065,15,PULSE,Pulse Rate,,66,BEATS/MIN,66,66,BEATS/MIN,,8,WEEK 8,2007-01-03,57
ABC,VS,ABC-06-065,16,PULSE,Pulse Rate,,52,BEATS/MIN,52,52,BEATS/MIN,,12,WEEK 12,2007-01-31,85
ABC,VS,ABC-06-065,17,PULSE,Pulse Rate,,65,BEATS/MIN,65,65,BEATS/MIN,,16,WEEK 16,2007-02-28,113
ABC,VS,ABC-06-065,18,RESP,Respiratory Rate,,12,BREATHS/MIN,12,12,BREATHS/MIN,,0,SCREENING,2006-10-27,-12
ABC,VS,ABC-06-065,19,RESP,Respiratory Rate,,12,BREATHS/MIN,12,12,BREATHS/MIN,Y,1,DAY 1,2006-11-08,1
ABC,VS,ABC-06-065,20,RESP,Respiratory Rate,,12,BREATHS/MIN,12,12,BREATHS/MIN,,2,WEEK 2,2006-11-22,15
ABC,VS,ABC-06-065,21,RESP,Respiratory Rate,,12,BREATHS/MIN,12,12,BREATHS/MIN,,4,WEEK 4,2006-12-06,29
ABC,VS,ABC-06-065,22,RESP,Respiratory Rate,,16,BREATHS/MIN,16,16,BREATHS/MIN,,6,WEEK 6,2006-12-20,43
ABC,VS,ABC-06-065,23,RESP,Respiratory Rate,,14,BREATHS/MIN,14,14,BREATHS/MIN,,8,WEEK 8,2007-01-03,57
ABC,VS,ABC-06-065,24,RESP,Respiratory Rate,,12,BREATHS/MIN,12,12,BREATHS/MIN,,12,WEEK 12,2007-01-31,85
ABC,VS,ABC-06-065,25,RESP,Respiratory Rate,,12,BREATHS/MIN,12,12,BREATHS/MIN,,16,WEEK 16,2007-02-28,113
ABC,VS,ABC-06-065,26,SYSBP,Systolic Blood Pressure,SITTING,108,mmHg,108,108,mmHg,,0,SCREENING,2006-10-27,-12
ABC,VS,ABC-06-065,27,SYSBP,Systolic Blood Pressure,SITTING,110,mmHg,110,110,mmHg,Y,1,DAY 1,2006-11-08,1
ABC,VS,ABC-06-065,28,SYSBP,Systolic Blood Pressure,SITTING,112,mmHg,112,112,mmHg,,2,WEEK 2,2006-11-22,15
ABC,VS,ABC-06-065,29,SYSBP,Systolic Blood Pressure,SITTING,112,mmHg,112,112,mmHg,,4,WEEK 4,2006-12-06,29
ABC,VS,ABC-06-065,30,SYSBP,Systolic Blood Pressure,SITTING,112,mmHg,112,112,mmHg,,6,WEEK 6,2006-12-20,43
ABC,VS,ABC-06-065,31,SYSBP,Systolic Blood Pressure,SITTING,118,mmHg,118,118,mmHg,,8,WEEK 8,2007-01-03,57
ABC,VS,ABC-06-065,32,SYSBP,Systolic Blood Pressure,SITTING,110,mmHg,110,110,mmHg,,12,WEEK 12,2007-01-31,85
ABC,VS,ABC-06-065,33,SYSBP,Systolic Blood Pressure,SITTING,115,mmHg,115,115,mmHg,,16,WEEK 16,2007-02-28,113
ABC,VS,ABC-06-065,34,TEMP,Temperature,,37.1,C,37.1,37.1,C,,0,SCREENING,2006-10-27,-12
ABC,VS,ABC-06-065,35,TEMP,Temperature,,36.3,C,36.3,36.3,C,Y,1,DAY 1,2006-11-08,1
ABC,VS,ABC-06-065,36,TEMP,Temperature,,38.2,C,38.2,38.2,C,,2,WEEK 2,2006-11-22,15
ABC,VS,ABC-06-065,37,TEMP,Temperature,,35.1,C,35.1,35.1,C,,4,WEEK 4,2006-12-06,29
ABC,VS,ABC-06-065,38,TEMP,Temperature,,34.9,C,34.9,34.9,C,,6,WEEK 6,2006-12-20,43
ABC,VS,ABC-06-065,39,TEMP,Temperature,,34.4,C,34.4,34.4,C,,8,WEEK 8,2007-01-03,57
ABC,VS,ABC-06-065,40,TEMP,Temperature,,35.3,C,35.3,35.3,C,,12,WEEK 12,2007-01-31,85
ABC,VS,ABC-06-065,41,TEMP,Temperature,,35.7,C,35.7,35.7,C,,16,WEEK 16,2007-02-28,113
ABC,VS,ABC-06-065,42,WEIGHT,Weight,,69.5,kg,69.5,69.5,kg,Y,0,SCREENING,2006-10-27,-12
ABC,VS,ABC-06-066,1,DIABP,Diastolic Blood Pressure,SITTING,82,mmHg,82,82,mmHg,,0,SCREENING,2006-11-05,-9
ABC,VS,ABC-06-066,2,DIABP,Diastolic Blood Pressure,SITTING,78,mmHg,78,78,mmHg,Y,1,DAY 1,2006-11-14,1
ABC,VS,ABC-06-066,3,DIABP,Diastolic Blood Pressure,SITTING,90,mmHg,90,90,mmHg,,2,WEEK 2,2006-11-28,15
ABC,VS,ABC-06-066,4,DIABP,Diastolic Blood Pressure,SITTING,80,mmHg,80,80,mmHg,,4,WEEK 4,2006-12-12,29
ABC,VS,ABC-06-066,5,DIABP,Diastolic Blood Pressure,SITTING,80,mmHg,80,80,mmHg,,6,WEEK 6,2006-12-28,45
ABC,VS,ABC-06-066,6,DIABP,Diastolic Blood Pressure,SITTING,70,mmHg,70,70,mmHg,,8,WEEK 8,2007-01-11,59
ABC,VS,ABC-06-066,7,DIABP,Diastolic Blood Pressure,SITTING,74,mmHg,74,74,mmHg,,12,WEEK 12,2007-02-08,87
ABC,VS,ABC-06-066,8,DIABP,Diastolic Blood Pressure,SITTING,80,mmHg,80,80,mmHg,,16,WEEK 16,2007-03-08,115
ABC,VS,ABC-06-066,9,HEIGHT,Height,,162.6,cm,162.6,162.6,cm,Y,0,SCREENING,2006-11-05,-9
ABC,VS,ABC-06-066,10,PULSE,Pulse Rate,,68,BEATS/MIN,68,68,BEATS/MIN,,0,SCREENING,2006-11-05,-9
ABC,VS,ABC-06-066,11,PULSE,Pulse Rate,,68,BEATS/MIN,68,68,BEATS/MIN,Y,1,DAY 1,2006-11-14,1
ABC,VS,ABC-06-066,12,PULSE,Pulse Rate,,72,BEATS/MIN,72,72,BEATS/MIN,,2,WEEK 2,2006-11-28,15
ABC,VS,ABC-06-066,13,PULSE,Pulse Rate,,60,BEATS/MIN,60,60,BEATS/MIN,,4,WEEK 4,2006-12-12,29
ABC,VS,ABC-06-066,14,PULSE,Pulse Rate,,92,BEATS/MIN,92,92,BEATS/MIN,,6,WEEK 6,2006-12-28,45
ABC,VS,ABC-06-066,15,PULSE,Pulse Rate,,72,BEATS/MIN,72,72,BEATS/MIN,,8,WEEK 8,2007-01-11,59
ABC,VS,ABC-06-066,16,PULSE,Pulse Rate,,60,BEATS/MIN,60,60,BEATS/MIN,,12,WEEK 12,2007-02-08,87
ABC,VS,ABC-06-066,17,PULSE,Pulse Rate,,80,BEATS/MIN,80,80,BEATS/MIN,,16,WEEK 16,2007-03-08,115
ABC,VS,ABC-06-066,18,RESP,Respiratory Rate,,16,BREATHS/MIN,16,16,BREATHS/MIN,,0,SCREENING,2006-11-05,-9
ABC,VS,ABC-06-066,19,RESP,Respiratory Rate,,16,BREATHS/MIN,16,16,BREATHS/MIN,Y,1,DAY 1,2006-11-14,1
ABC,VS,ABC-06-066,20,RESP,Respiratory Rate,,16,BREATHS/MIN,16,16,BREATHS/MIN,,2,WEEK 2,2006-11-28,15
ABC,VS,ABC-06-066,21,RESP,Respiratory Rate,,16,BREATHS/MIN,16,16,BREATHS/MIN,,4,WEEK 4,2006-12-12,29
ABC,VS,ABC-06-066,22,RESP,Respiratory Rate,,12,BREATHS/MIN,12,12,BREATHS/MIN,,6,WEEK 6,2006-12-28,45
ABC,VS,ABC-06-066,23,RESP,Respiratory Rate,,12,BREATHS/MIN,12,12,BREATHS/MIN,,8,WEEK 8,2007-01-11,59
ABC,VS,ABC-06-066,24,RESP,Respiratory Rate,,12,BREATHS/MIN,12,12,BREATHS/MIN,,12,WEEK 12,2007-02-08,87
ABC,VS,ABC-06-066,25,RESP,Respiratory Rate,,12,BREATHS/MIN,12,12,BREATHS/MIN,,16,WEEK 16,2007-03-08,115
ABC,VS,ABC-06-066,26,SYSBP,Systolic Blood Pressure,SITTING,124,mmHg,124,124,mmHg,,0,SCREENING,2006-11-05,-9
ABC,VS,ABC-06-066,27,SYSBP,Systolic Blood Pressure,SITTING,118,mmHg,118,118,mmHg,Y,1,DAY 1,2006-11-14,1
ABC,VS,ABC-06-066,28,SYSBP,Systolic Blood Pressure,SITTING,130,mmHg,130,130,mmHg,,2,WEEK 2,2006-11-28,15
ABC,VS,ABC-06-066,29,SYSBP,Systolic Blood Pressure,SITTING,120,mmHg,120,120,mmHg,,4,WEEK 4,2006-12-12,29
ABC,VS,ABC-06-066,30,SYSBP,Systolic Blood Pressure,SITTING,130,mmHg,130,130,mmHg,,6,WEEK 6,2006-12-28,45
ABC,VS,ABC-06-066,31,SYSBP,Systolic Blood Pressure,SITTING,120,mmHg,120,120,mmHg,,8,WEEK 8,2007-01-11,59
ABC,VS,ABC-06-066,32,SYSBP,Systolic Blood Pressure,SITTING,130,mmHg,130,130,mmHg,,12,WEEK 12,2007-02-08,87
ABC,VS,ABC-06-066,33,SYSBP,Systolic Blood Pressure,SITTING,130,mmHg,130,130,mmHg,,16,WEEK 16,2007-03-08,115
ABC,VS,ABC-06-066,34,TEMP,Temperature,,36.3,C,36.3,36.3,C,,0,SCREENING,2006-11-05,-9
ABC,VS,ABC-06-066,35,TEMP,Temperature,,36.4,C,36.4,36.4,C,Y,1,DAY 1,2006-11-14,1
ABC,VS,ABC-06-066,36,TEMP,Temperature,,36.3,C,36.3,36.3,C,,2,WEEK 2,2006-11-28,15
ABC,VS,ABC-06-066,37,TEMP,Temperature,,36.3,C,36.3,36.3,C,,4,WEEK 4,2006-12-12,29
ABC,VS,ABC-06-066,38,TEMP,Temperature,,35.9,C,35.9,35.9,C,,6,WEEK 6,2006-12-28,45
ABC,VS,ABC-06-066,39,TEMP,Temperature,,36.1,C,36.1,36.1,C,,8,WEEK 8,2007-01-11,59
ABC,VS,ABC-06-066,40,TEMP,Temperature,,36.1,C,36.1,36.1,C,,12,WEEK 12,2007-02-08,87
ABC,VS,ABC-06-066,41,TEMP,Temperature,,35.7,C,35.7,35.7,C,,16,WEEK 16,2007-03-08,115
ABC,VS,ABC-06-066,42,WEIGHT,Weight,,98.4,kg,98.4,98.4,kg,Y,0,SCREENING,2006-11-05,-9
ABC,VS,ABC-06-067,1,DIABP,Diastolic Blood Pressure,SITTING,70,mmHg,70,70,mmHg,,0,SCREENING,2006-11-14,-7
ABC,VS,ABC-06-067,2,DIABP,Diastolic Blood Pressure,SITTING,70,mmHg,70,70,mmHg,Y,1,DAY 1,2006-11-21,1
ABC,VS,ABC-06-067,3,DIABP,Diastolic Blood Pressure,SITTING,70,mmHg,70,70,mmHg,,2,WEEK 2,2006-12-04,14
ABC,VS,ABC-06-067,4,DIABP,Diastolic Blood Pressure,SITTING,64,mmHg,64,64,mmHg,,4,WEEK 4,2006-12-18,28
ABC,VS,ABC-06-067,5,DIABP,Diastolic Blood Pressure,SITTING,62,mmHg,62,62,mmHg,,6,WEEK 6,2007-01-02,43
ABC,VS,ABC-06-067,6,DIABP,Diastolic Blood Pressure,SITTING,75,mmHg,75,75,mmHg,,8,WEEK 8,2007-01-18,59
ABC,VS,ABC-06-067,7,DIABP,Diastolic Blood Pressure,SITTING,65,mmHg,65,65,mmHg,,12,WEEK 12,2007-02-13,85
ABC,VS,ABC-06-067,8,DIABP,Diastolic Blood Pressure,SITTING,55,mmHg,55,55,mmHg,,16,WEEK 16,2007-03-15,115
ABC,VS,ABC-06-067,9,HEIGHT,Height,,149.9,cm,149.9,149.9,cm,Y,0,SCREENING,2006-11-14,-7
ABC,VS,ABC-06-067,10,PULSE,Pulse Rate,,64,BEATS/MIN,64,64,BEATS/MIN,,0,SCREENING,2006-11-14,-7
ABC,VS,ABC-06-067,11,PULSE,Pulse Rate,,68,BEATS/MIN,68,68,BEATS/MIN,Y,1,DAY 1,2006-11-21,1
ABC,VS,ABC-06-067,12,PULSE,Pulse Rate,,80,BEATS/MIN,80,80,BEATS/MIN,,2,WEEK 2,2006-12-04,14
ABC,VS,ABC-06-067,13,PULSE,Pulse Rate,,80,BEATS/MIN,80,80,BEATS/MIN,,4,WEEK 4,2006-12-18,28
ABC,VS,ABC-06-067,14,PULSE,Pulse Rate,,64,BEATS/MIN,64,64,BEATS/MIN,,6,WEEK 6,2007-01-02,43
ABC,VS,ABC-06-067,15,PULSE,Pulse Rate,,64,BEATS/MIN,64,64,BEATS/MIN,,8,WEEK 8,2007-01-18,59
ABC,VS,ABC-06-067,16,PULSE,Pulse Rate,,64,BEATS/MIN,64,64,BEATS/MIN,,12,WEEK 12,2007-02-13,85
ABC,VS,ABC-06-067,17,PULSE,Pulse Rate,,80,BEATS/MIN,80,80,BEATS/MIN,,16,WEEK 16,2007-03-15,115
ABC,VS,ABC-06-067,18,RESP,Respiratory Rate,,12,BREATHS/MIN,12,12,BREATHS/MIN,,0,SCREENING,2006-11-14,-7
ABC,VS,ABC-06-067,19,RESP,Respiratory Rate,,16,BREATHS/MIN,16,16,BREATHS/MIN,Y,1,DAY 1,2006-11-21,1
ABC,VS,ABC-06-067,20,RESP,Respiratory Rate,,16,BREATHS/MIN,16,16,BREATHS/MIN,,2,WEEK 2,2006-12-04,14
ABC,VS,ABC-06-067,21,RESP,Respiratory Rate,,12,BREATHS/MIN,12,12,BREATHS/MIN,,4,WEEK 4,2006-12-18,28
ABC,VS,ABC-06-067,22,RESP,Respiratory Rate,,16,BREATHS/MIN,16,16,BREATHS/MIN,,6,WEEK 6,2007-01-02,43
ABC,VS,ABC-06-067,23,RESP,Respiratory Rate,,12,BREATHS/MIN,12,12,BREATHS/MIN,,8,WEEK 8,2007-01-18,59
ABC,VS,ABC-06-067,24,RESP,Respiratory Rate,,12,BREATHS/MIN,12,12,BREATHS/MIN,,12,WEEK 12,2007-02-13,85
ABC,VS,ABC-06-067,25,RESP,Respiratory Rate,,12,BREATHS/MIN,12,12,BREATHS/MIN,,16,WEEK 16,2007-03-15,115
ABC,VS,ABC-06-067,26,SYSBP,Systolic Blood Pressure,SITTING,118,mmHg,118,118,mmHg,,0,SCREENING,2006-11-14,-7
ABC,VS,ABC-06-067,27,SYSBP,Systolic Blood Pressure,SITTING,110,mmHg,110,110,mmHg,Y,1,DAY 1,2006-11-21,1
ABC,VS,ABC-06-067,28,SYSBP,Systolic Blood Pressure,SITTING,115,mmHg,115,115,mmHg,,2,WEEK 2,2006-12-04,14
ABC,VS,ABC-06-067,29,SYSBP,Systolic Blood Pressure,SITTING,112,mmHg,112,112,mmHg,,4,WEEK 4,2006-12-18,28
ABC,VS,ABC-06-067,30,SYSBP,Systolic Blood Pressure,SITTING,115,mmHg,115,115,mmHg,,6,WEEK 6,2007-01-02,43
ABC,VS,ABC-06-067,31,SYSBP,Systolic Blood Pressure,SITTING,110,mmHg,110,110,mmHg,,8,WEEK 8,2007-01-18,59
ABC,VS,ABC-06-067,32,SYSBP,Systolic Blood Pressure,SITTING,108,mmHg,108,108,mmHg,,12,WEEK 12,2007-02-13,85
ABC,VS,ABC-06-067,33,SYSBP,Systolic Blood Pressure,SITTING,115,mmHg,115,115,mmHg,,16,WEEK 16,2007-03-15,115
ABC,VS,ABC-06-067,34,TEMP,Temperature,,36.3,C,36.3,36.3,C,,0,SCREENING,2006-11-14,-7
ABC,VS,ABC-06-067,35,TEMP,Temperature,,36.3,C,36.3,36.3,C,Y,1,DAY 1,2006-11-21,1
ABC,VS,ABC-06-067,36,TEMP,Temperature,,35.9,C,35.9,35.9,C,,2,WEEK 2,2006-12-04,14
ABC,VS,ABC-06-067,37,TEMP,Temperature,,35.9,C,35.9,35.9,C,,4,WEEK 4,2006-12-18,28
ABC,VS,ABC-06-067,38,TEMP,Temperature,,37,C,37,37,C,,6,WEEK 6,2007-01-02,43
ABC,VS,ABC-06-067,39,TEMP,Temperature,,36.1,C,36.1,36.1,C,,8,WEEK 8,2007-01-18,59
ABC,VS,ABC-06-067,40,TEMP,Temperature,,35.7,C,35.7,35.7,C,,12,WEEK 12,2007-02-13,85
ABC,VS,ABC-06-067,41,TEMP,Temperature,,36.2,C,36.2,36.2,C,,16,WEEK 16,2007-03-15,115
ABC,VS,ABC-06-067,42,WEIGHT,Weight,,77.1,kg,77.1,77.1,kg,Y,0,SCREENING,2006-11-14,-7
ABC,VS,ABC-06-068,1,DIABP,Diastolic Blood Pressure,SITTING,80,mmHg,80,80,mmHg,,0,SCREENING,2006-11-16,-6
ABC,VS,ABC-06-068,2,DIABP,Diastolic Blood Pressure,SITTING,62,mmHg,62,62,mmHg,Y,1,DAY 1,2006-11-22,1
ABC,VS,ABC-06-068,3,DIABP,Diastolic Blood Pressure,SITTING,72,mmHg,72,72,mmHg,,2,WEEK 2,2006-12-08,17
ABC,VS,ABC-06-068,4,DIABP,Diastolic Blood Pressure,SITTING,70,mmHg,70,70,mmHg,,4,WEEK 4,2006-12-21,30
ABC,VS,ABC-06-068,5,DIABP,Diastolic Blood Pressure,SITTING,50,mmHg,50,50,mmHg,,6,WEEK 6,2007-01-05,45
ABC,VS,ABC-06-068,6,DIABP,Diastolic Blood Pressure,SITTING,70,mmHg,70,70,mmHg,,8,WEEK 8,2007-01-19,59
ABC,VS,ABC-06-068,7,DIABP,Diastolic Blood Pressure,SITTING,80,mmHg,80,80,mmHg,,12,WEEK 12,2007-02-15,86
ABC,VS,ABC-06-068,8,DIABP,Diastolic Blood Pressure,SITTING,76,mmHg,76,76,mmHg,,16,WEEK 16,2007-03-15,114
ABC,VS,ABC-06-068,9,HEIGHT,Height,,162.6,cm,162.6,162.6,cm,Y,0,SCREENING,2006-11-16,-6
ABC,VS,ABC-06-068,10,PULSE,Pulse Rate,,60,BEATS/MIN,60,60,BEATS/MIN,,0,SCREENING,2006-11-16,-6
ABC,VS,ABC-06-068,11,PULSE,Pulse Rate,,60,BEATS/MIN,60,60,BEATS/MIN,Y,1,DAY 1,2006-11-22,1
ABC,VS,ABC-06-068,12,PULSE,Pulse Rate,,64,BEATS/MIN,64,64,BEATS/MIN,,2,WEEK 2,2006-12-08,17
ABC,VS,ABC-06-068,13,PULSE,Pulse Rate,,56,BEATS/MIN,56,56,BEATS/MIN,,4,WEEK 4,2006-12-21,30
ABC,VS,ABC-06-068,14,PULSE,Pulse Rate,,68,BEATS/MIN,68,68,BEATS/MIN,,6,WEEK 6,2007-01-05,45
ABC,VS,ABC-06-068,15,PULSE,Pulse Rate,,56,BEATS/MIN,56,56,BEATS/MIN,,8,WEEK 8,2007-01-19,59
ABC,VS,ABC-06-068,16,PULSE,Pulse Rate,,66,BEATS/MIN,66,66,BEATS/MIN,,12,WEEK 12,2007-02-15,86
ABC,VS,ABC-06-068,17,PULSE,Pulse Rate,,60,BEATS/MIN,60,60,BEATS/MIN,,16,WEEK 16,2007-03-15,114
ABC,VS,ABC-06-068,18,RESP,Respiratory Rate,,14,BREATHS/MIN,14,14,BREATHS/MIN,,0,SCREENING,2006-11-16,-6
ABC,VS,ABC-06-068,19,RESP,Respiratory Rate,,16,BREATHS/MIN,16,16,BREATHS/MIN,Y,1,DAY 1,2006-11-22,1
ABC,VS,ABC-06-068,20,RESP,Respiratory Rate,,16,BREATHS/MIN,16,16,BREATHS/MIN,,2,WEEK 2,2006-12-08,17
ABC,VS,ABC-06-068,21,RESP,Respiratory Rate,,12,BREATHS/MIN,12,12,BREATHS/MIN,,4,WEEK 4,2006-12-21,30
ABC,VS,ABC-06-068,22,RESP,Respiratory Rate,,14,BREATHS/MIN,14,14,BREATHS/MIN,,6,WEEK 6,2007-01-05,45
ABC,VS,ABC-06-068,23,RESP,Respiratory Rate,,12,BREATHS/MIN,12,12,BREATHS/MIN,,8,WEEK 8,2007-01-19,59
ABC,VS,ABC-06-068,24,RESP,Respiratory Rate,,12,BREATHS/MIN,12,12,BREATHS/MIN,,12,WEEK 12,2007-02-15,86
ABC,VS,ABC-06-068,25,RESP,Respiratory Rate,,12,BREATHS/MIN,12,12,BREATHS/MIN,,16,WEEK 16,2007-03-15,114
ABC,VS,ABC-06-068,26,SYSBP,Systolic Blood Pressure,SITTING,108,mmHg,108,108,mmHg,,0,SCREENING,2006-11-16,-6
ABC,VS,ABC-06-068,27,SYSBP,Systolic Blood Pressure,SITTING,110,mmHg,110,110,mmHg,Y,1,DAY 1,2006-11-22,1
ABC,VS,ABC-06-068,28,SYSBP,Systolic Blood Pressure,SITTING,118,mmHg,118,118,mmHg,,2,WEEK 2,2006-12-08,17
ABC,VS,ABC-06-068,29,SYSBP,Systolic Blood Pressure,SITTING,110,mmHg,110,110,mmHg,,4,WEEK 4,2006-12-21,30
ABC,VS,ABC-06-068,30,SYSBP,Systolic Blood Pressure,SITTING,110,mmHg,110,110,mmHg,,6,WEEK 6,2007-01-05,45
ABC,VS,ABC-06-068,31,SYSBP,Systolic Blood Pressure,SITTING,100,mmHg,100,100,mmHg,,8,WEEK 8,2007-01-19,59
ABC,VS,ABC-06-068,32,SYSBP,Systolic Blood Pressure,SITTING,120,mmHg,120,120,mmHg,,12,WEEK 12,2007-02-15,86
ABC,VS,ABC-06-068,33,SYSBP,Systolic Blood Pressure,SITTING,118,mmHg,118,118,mmHg,,16,WEEK 16,2007-03-15,114
ABC,VS,ABC-06-068,34,TEMP,Temperature,,36.6,C,36.6,36.6,C,Y,1,DAY 1,2006-11-22,1
ABC,VS,ABC-06-068,35,TEMP,Temperature,,36.3,C,36.3,36.3,C,,2,WEEK 2,2006-12-08,17
ABC,VS,ABC-06-068,36,TEMP,Temperature,,36.3,C,36.3,36.3,C,,4,WEEK 4,2006-12-21,30
ABC,VS,ABC-06-068,37,TEMP,Temperature,,36.6,C,36.6,36.6,C,,6,WEEK 6,2007-01-05,45
ABC,VS,ABC-06-068,38,TEMP,Temperature,,36.4,C,36.4,36.4,C,,8,WEEK 8,2007-01-19,59
ABC,VS,ABC-06-068,39,TEMP,Temperature,,36.3,C,36.3,36.3,C,,12,WEEK 12,2007-02-15,86
ABC,VS,ABC-06-068,40,TEMP,Temperature,,36.3,C,36.3,36.3,C,,16,WEEK 16,2007-03-15,114
