STUDYID,DOMAIN,USUBJID,DSSEQ,DSTERM,DSDECOD,DSCAT,DSSTDTC,DSSTDY
ABC,DS,ABC-01-049,1,SUBJECT COMPLETED ALL VISITS AND PROTOCOL REQUIREMENTS,COMPLETED,DISPOSITION EVENT,2007-03-13,127
ABC,DS,ABC-01-049,2,INFORMED CONSENT OBTAINED,INFORMED CONSENT OBTAINED,PROTOCOL MILESTONE,2006-10-25,-13
ABC,DS,ABC-01-050,1,SUBJECT COMPLETED ALL VISITS AND PROTOCOL REQUIREMENTS,COMPLETED,DISPOSITION EVENT,2007-03-08,127
ABC,DS,ABC-01-050,2,INFORMED CONSENT OBTAINED,INFORMED CONSENT OBTAINED,PROTOCOL MILESTONE,2006-10-25,-8
ABC,DS,ABC-01-051,1,SUBJECT COMPLETED ALL VISITS AND PROTOCOL REQUIREMENTS,COMPLETED,DISPOSITION EVENT,2007-03-08,127
ABC,DS,ABC-01-051,2,INFORMED CONSENT OBTAINED,INFORMED CONSENT OBTAINED,PROTOCOL MILESTONE,2006-10-25,-8
ABC,DS,ABC-01-052,1,SUBJECT COMPLETED ALL VISITS AND PROTOCOL REQUIREMENTS,COMPLETED,DISPOSITION EVENT,2007-03-05,120
ABC,DS,ABC-01-052,2,INFORMED CONSENT OBTAINED,INFORMED CONSENT OBTAINED,PROTOCOL MILESTONE,2006-10-31,-6
ABC,DS,ABC-01-053,1,INFORMED CONSENT OBTAINED,INFORMED CONSENT OBTAINED,PROTOCOL MILESTONE,2006-11-01,-7
ABC,DS,ABC-01-053,2,NON-COMPLIANCE WITH STUDY DRUG,NON-COMPLIANCE WITH STUDY DRUG,DISPOSITION EVENT,2006-12-12,35
ABC,DS,ABC-01-054,1,SUBJECT COMPLETED ALL VISITS AND PROTOCOL REQUIREMENTS,COMPLETED,DISPOSITION EVENT,2007-04-04,140
ABC,DS,ABC-01-054,2,INFORMED CONSENT OBTAINED,INFORMED CONSENT OBTAINED,PROTOCOL MILESTONE,2006-11-07,-9
ABC,DS,ABC-01-055,1,SUBJECT COMPLETED ALL VISITS AND PROTOCOL REQUIREMENTS,COMPLETED,DISPOSITION EVENT,2007-04-23,139
ABC,DS,ABC-01-055,2,INFORMED CONSENT OBTAINED,INFORMED CONSENT OBTAINED,PROTOCOL MILESTONE,2006-10-31,-36
ABC,DS,ABC-01-056,1,SUBJECT COMPLETED ALL VISITS AND PROTOCOL REQUIREMENTS,COMPLETED,DISPOSITION EVENT,2007-03-22,115
ABC,DS,ABC-01-056,2,INFORMED CONSENT OBTAINED,INFORMED CONSENT OBTAINED,PROTOCOL MILESTONE,2006-11-21,-7
ABC,DS,ABC-01-113,1,SUBJECT COMPLETED ALL VISITS AND PROTOCOL REQUIREMENTS,COMPLETED,DISPOSITION EVENT,2007-04-03,120
ABC,DS,ABC-01-113,2,INFORMED CONSENT OBTAINED,INFORMED CONSENT OBTAINED,PROTOCOL MILESTONE,2006-11-28,-7
ABC,DS,ABC-01-114,1,SUBJECT COMPLETED ALL VISITS AND PROTOCOL REQUIREMENTS,COMPLETED,DISPOSITION EVENT,2007-03-29,106
ABC,DS,ABC-01-114,2,INFORMED CONSENT OBTAINED,INFORMED CONSENT OBTAINED,PROTOCOL MILESTONE,2006-12-01,-13
ABC,DS,ABC-02-033,1,SUBJECT COMPLETED ALL VISITS AND PROTOCOL REQUIREMENTS,COMPLETED,DISPOSITION EVENT,2007-02-13,112
ABC,DS,ABC-02-033,2,INFORMED CONSENT OBTAINED,INFORMED CONSENT OBTAINED,PROTOCOL MILESTONE,2006-10-16,-9
ABC,DS,ABC-02-034,1,SUBJECT COMPLETED ALL VISITS AND PROTOCOL REQUIREMENTS,COMPLETED,DISPOSITION EVENT,2007-02-15,113
ABC,DS,ABC-02-034,2,INFORMED CONSENT OBTAINED,INFORMED CONSENT OBTAINED,PROTOCOL MILESTONE,2006-10-16,-10
ABC,DS,ABC-02-035,1,SUBJECT COMPLETED ALL VISITS AND PROTOCOL REQUIREMENTS,COMPLETED,DISPOSITION EVENT,2007-02-20,113
ABC,DS,ABC-02-035,2,INFORMED CONSENT OBTAINED,INFORMED CONSENT OBTAINED,PROTOCOL MILESTONE,2006-10-16,-15
ABC,DS,ABC-02-036,1,SUBJECT COMPLETED ALL VISITS AND PROTOCOL REQUIREMENTS,COMPLETED,DISPOSITION EVENT,2007-02-21,113
ABC,DS,ABC-02-036,2,INFORMED CONSENT OBTAINED,INFORMED CONSENT OBTAINED,PROTOCOL MILESTONE,2006-10-23,-9
ABC,DS,ABC-02-037,1,SUBJECT COMPLETED ALL VISITS AND PROTOCOL REQUIREMENTS,COMPLETED,DISPOSITION EVENT,2007-02-15,107
ABC,DS,ABC-02-037,2,INFORMED CONSENT OBTAINED,INFORMED CONSENT OBTAINED,PROTOCOL MILESTONE,2006-10-24,-8
ABC,DS,ABC-02-038,1,SUBJECT COMPLETED ALL VISITS AND PROTOCOL REQUIREMENTS,COMPLETED,DISPOSITION EVENT,2007-03-05,113
ABC,DS,ABC-02-038,2,INFORMED CONSENT OBTAINED,INFORMED CONSENT OBTAINED,PROTOCOL MILESTONE,2006-10-30,-14
ABC,DS,ABC-02-039,1,SUBJECT COMPLETED ALL VISITS BUT WITH MAJOR PROTOCOL VIOLATIONS,COMPLETED,DISPOSITION EVENT,2007-03-06,112
ABC,DS,ABC-02-039,2,INFORMED CONSENT OBTAINED,INFORMED CONSENT OBTAINED,PROTOCOL MILESTONE,2006-11-06,-9
ABC,DS,ABC-02-040,1,SUBJECT COMPLETED ALL VISITS AND PROTOCOL REQUIREMENTS,COMPLETED,DISPOSITION EVENT,2007-03-29,113
ABC,DS,ABC-02-040,2,INFORMED CONSENT OBTAINED,INFORMED CONSENT OBTAINED,PROTOCOL MILESTONE,2006-11-29,-8
ABC,DS,ABC-02-109,1,SUBJECT COMPLETED ALL VISITS AND PROTOCOL REQUIREMENTS,COMPLETED,DISPOSITION EVENT,2007-03-28,112
ABC,DS,ABC-02-109,2,INFORMED CONSENT OBTAINED,INFORMED CONSENT OBTAINED,PROTOCOL MILESTONE,2006-11-28,-9
ABC,DS,ABC-02-110,1,SUBJECT COMPLETED ALL VISITS AND PROTOCOL REQUIREMENTS,COMPLETED,DISPOSITION EVENT,2007-04-09,113
ABC,DS,ABC-02-110,2,INFORMED CONSENT OBTAINED,INFORMED CONSENT OBTAINED,PROTOCOL MILESTONE,2006-12-11,-7
ABC,DS,ABC-02-111,1,SUBJECT COMPLETED ALL VISITS AND PROTOCOL REQUIREMENTS,COMPLETED,DISPOSITION EVENT,2007-04-10,113
ABC,DS,ABC-02-111,2,INFORMED CONSENT OBTAINED,INFORMED CONSENT OBTAINED,PROTOCOL MILESTONE,2006-12-11,-8
ABC,DS,ABC-02-112,1,SUBJECT COMPLETED ALL VISITS AND PROTOCOL REQUIREMENTS,COMPLETED,DISPOSITION EVENT,2007-04-10,113
ABC,DS,ABC-02-112,2,INFORMED CONSENT OBTAINED,INFORMED CONSENT OBTAINED,PROTOCOL MILESTONE,2006-12-12,-7
ABC,DS,ABC-03-001,1,SUBJECT COMPLETED ALL VISITS AND PROTOCOL REQUIREMENTS,COMPLETED,DISPOSITION EVENT,2007-01-30,113
ABC,DS,ABC-03-001,2,INFORMED CONSENT OBTAINED,INFORMED CONSENT OBTAINED,PROTOCOL MILESTONE,2006-09-26,-14
ABC,DS,ABC-03-002,1,SUBJECT COMPLETED ALL VISITS AND PROTOCOL REQUIREMENTS,COMPLETED,DISPOSITION EVENT,2007-02-01,114
ABC,DS,ABC-03-002,2,INFORMED CONSENT OBTAINED,INFORMED CONSENT OBTAINED,PROTOCOL MILESTONE,2006-09-27,-14
ABC,DS,ABC-03-003,1,SUBJECT COMPLETED ALL VISITS AND PROTOCOL REQUIREMENTS,COMPLETED,DISPOSITION EVENT,2007-01-31,113
ABC,DS,ABC-03-003,2,INFORMED CONSENT OBTAINED,INFORMED CONSENT OBTAINED,PROTOCOL MILESTONE,2006-09-27,-14
ABC,DS,ABC-03-004,1,SUBJECT COMPLETED ALL VISITS AND PROTOCOL REQUIREMENTS,COMPLETED,DISPOSITION EVENT,2007-02-01,113
ABC,DS,ABC-03-004,2,INFORMED CONSENT OBTAINED,INFORMED CONSENT OBTAINED,PROTOCOL MILESTONE,2006-09-27,-15
ABC,DS,ABC-03-005,1,INFORMED CONSENT OBTAINED,INFORMED CONSENT OBTAINED,PROTOCOL MILESTONE,2006-09-27,-15
ABC,DS,ABC-03-005,2,LOST OF FOLLOW UP.  CERTIFIED LETTER ASKING ABOUT DRUG RETURN SENT; PATIENT RECEIVED BUT HAS NOT RETURNED STUDY DRUG.,OTHER,DISPOSITION EVENT,2006-12-04,54
ABC,DS,ABC-03-006,1,SUBJECT COMPLETED ALL VISITS AND PROTOCOL REQUIREMENTS,COMPLETED,DISPOSITION EVENT,2007-02-15,114
ABC,DS,ABC-03-006,2,INFORMED CONSENT OBTAINED,INFORMED CONSENT OBTAINED,PROTOCOL MILESTONE,2006-10-18,-7
ABC,DS,ABC-03-007,1,SUBJECT COMPLETED ALL VISITS AND PROTOCOL REQUIREMENTS,COMPLETED,DISPOSITION EVENT,2007-02-20,113
ABC,DS,ABC-03-007,2,INFORMED CONSENT OBTAINED,INFORMED CONSENT OBTAINED,PROTOCOL MILESTONE,2006-10-27,-4
ABC,DS,ABC-03-008,1,INFORMED CONSENT OBTAINED,INFORMED CONSENT OBTAINED,PROTOCOL MILESTONE,2006-10-18,-15
ABC,DS,ABC-03-008,2,WORSENING OF PSORIASIS AND LACK OF EFFICACY,OTHER,DISPOSITION EVENT,2006-11-09,8
ABC,DS,ABC-03-089,1,SUBJECT COMPLETED ALL VISITS AND PROTOCOL REQUIREMENTS,COMPLETED,DISPOSITION EVENT,2007-03-13,113
ABC,DS,ABC-03-089,2,INFORMED CONSENT OBTAINED,INFORMED CONSENT OBTAINED,PROTOCOL MILESTONE,2006-11-15,-6
ABC,DS,ABC-03-090,1,SUBJECT COMPLETED ALL VISITS AND PROTOCOL REQUIREMENTS,COMPLETED,DISPOSITION EVENT,2007-03-28,113
ABC,DS,ABC-03-090,2,INFORMED CONSENT OBTAINED,INFORMED CONSENT OBTAINED,PROTOCOL MILESTONE,2006-11-30,-6
ABC,DS,ABC-03-091,1,SUBJECT COMPLETED ALL VISITS AND PROTOCOL REQUIREMENTS,COMPLETED,DISPOSITION EVENT,2007-04-10,112
ABC,DS,ABC-03-091,2,INFORMED CONSENT OBTAINED,INFORMED CONSENT OBTAINED,PROTOCOL MILESTONE,2006-12-11,-9
ABC,DS,ABC-04-073,1,SUBJECT COMPLETED ALL VISITS AND PROTOCOL REQUIREMENTS,COMPLETED,DISPOSITION EVENT,2007-02-21,114
ABC,DS,ABC-04-073,2,INFORMED CONSENT OBTAINED,INFORMED CONSENT OBTAINED,PROTOCOL MILESTONE,2006-10-10,-21
ABC,DS,ABC-04-074,1,INFORMED CONSENT OBTAINED,INFORMED CONSENT OBTAINED,PROTOCOL MILESTONE,2006-10-16,-16
ABC,DS,ABC-04-074,2,LACK OF EFFICACY,OTHER,DISPOSITION EVENT,2006-11-20,20
ABC,DS,ABC-04-075,1,SUBJECT COMPLETED ALL VISITS AND PROTOCOL REQUIREMENTS,COMPLETED,DISPOSITION EVENT,2007-03-07,119
ABC,DS,ABC-04-075,2,INFORMED CONSENT OBTAINED,INFORMED CONSENT OBTAINED,PROTOCOL MILESTONE,2006-11-02,-7
ABC,DS,ABC-04-076,1,SUBJECT COMPLETED ALL VISITS AND PROTOCOL REQUIREMENTS,COMPLETED,DISPOSITION EVENT,2007-03-08,114
ABC,DS,ABC-04-076,2,INFORMED CONSENT OBTAINED,INFORMED CONSENT OBTAINED,PROTOCOL MILESTONE,2006-10-26,-20
ABC,DS,ABC-04-077,1,SUBJECT COMPLETED ALL VISITS AND PROTOCOL REQUIREMENTS,COMPLETED,DISPOSITION EVENT,2007-03-12,118
ABC,DS,ABC-04-077,2,INFORMED CONSENT OBTAINED,INFORMED CONSENT OBTAINED,PROTOCOL MILESTONE,2006-11-02,-13
ABC,DS,ABC-04-078,1,SUBJECT COMPLETED ALL VISITS AND PROTOCOL REQUIREMENTS,COMPLETED,DISPOSITION EVENT,2007-04-04,113
ABC,DS,ABC-04-078,2,INFORMED CONSENT OBTAINED,INFORMED CONSENT OBTAINED,PROTOCOL MILESTONE,2006-11-21,-22
ABC,DS,ABC-04-079,1,SUBJECT COMPLETED ALL VISITS AND PROTOCOL REQUIREMENTS,COMPLETED,DISPOSITION EVENT,2007-04-12,116
ABC,DS,ABC-04-079,2,INFORMED CONSENT OBTAINED,INFORMED CONSENT OBTAINED,PROTOCOL MILESTONE,2006-12-11,-7
ABC,DS,ABC-04-080,1,SUBJECT COMPLETED ALL VISITS AND PROTOCOL REQUIREMENTS,COMPLETED,DISPOSITION EVENT,2007-04-12,113
ABC,DS,ABC-04-080,2,INFORMED CONSENT OBTAINED,INFORMED CONSENT OBTAINED,PROTOCOL MILESTONE,2006-12-12,-9
ABC,DS,ABC-04-125,1,SUBJECT COMPLETED ALL VISITS AND PROTOCOL REQUIREMENTS,COMPLETED,DISPOSITION EVENT,2007-04-13,106
ABC,DS,ABC-04-125,2,INFORMED CONSENT OBTAINED,INFORMED CONSENT OBTAINED,PROTOCOL MILESTONE,2006-12-14,-15
ABC,DS,ABC-04-126,1,SUBJECT COMPLETED ALL VISITS AND PROTOCOL REQUIREMENTS,COMPLETED,DISPOSITION EVENT,2007-04-23,112
ABC,DS,ABC-04-126,2,INFORMED CONSENT OBTAINED,INFORMED CONSENT OBTAINED,PROTOCOL MILESTONE,2006-12-13,-20
ABC,DS,ABC-04-127,1,SUBJECT COMPLETED ALL VISITS AND PROTOCOL REQUIREMENTS,COMPLETED,DISPOSITION EVENT,2007-05-11,129
ABC,DS,ABC-04-127,2,INFORMED CONSENT OBTAINED,INFORMED CONSENT OBTAINED,PROTOCOL MILESTONE,2006-12-14,-20
ABC,DS,ABC-04-128,1,INFORMED CONSENT OBTAINED,INFORMED CONSENT OBTAINED,PROTOCOL MILESTONE,2006-12-21,-14
ABC,DS,ABC-04-128,2,LOST TO FOLLOW UP,OTHER,DISPOSITION EVENT,2007-01-19,16
ABC,DS,ABC-04-129,1,SUBJECT COMPLETED ALL VISITS AND PROTOCOL REQUIREMENTS,COMPLETED,DISPOSITION EVENT,2007-04-27,113
ABC,DS,ABC-04-129,2,INFORMED CONSENT OBTAINED,INFORMED CONSENT OBTAINED,PROTOCOL MILESTONE,2006-12-19,-17
ABC,DS,ABC-04-130,1,SUBJECT COMPLETED ALL VISITS AND PROTOCOL REQUIREMENTS,COMPLETED,DISPOSITION EVENT,2007-05-02,115
ABC,DS,ABC-04-130,2,INFORMED CONSENT OBTAINED,INFORMED CONSENT OBTAINED,PROTOCOL MILESTONE,2006-12-18,-21
ABC,DS,ABC-04-131,1,SUBJECT COMPLETED ALL VISITS AND PROTOCOL REQUIREMENTS,COMPLETED,DISPOSITION EVENT,2007-05-02,113
ABC,DS,ABC-04-131,2,INFORMED CONSENT OBTAINED,INFORMED CONSENT OBTAINED,PROTOCOL MILESTONE,2006-12-18,-23
ABC,DS,ABC-06-065,1,SUBJECT COMPLETED ALL VISITS AND PROTOCOL REQUIREMENTS,COMPLETED,DISPOSITION EVENT,2007-02-28,113
ABC,DS,ABC-06-065,2,INFORMED CONSENT OBTAINED,INFORMED CONSENT OBTAINED,PROTOCOL MILESTONE,2006-10-27,-12
ABC,DS,ABC-06-066,1,SUBJECT COMPLETED ALL VISITS AND PROTOCOL REQUIREMENTS,COMPLETED,DISPOSITION EVENT,2007-03-08,115
ABC,DS,ABC-06-066,2,INFORMED CONSENT OBTAINED,INFORMED CONSENT OBTAINED,PROTOCOL MILESTONE,2006-11-06,-8
ABC,DS,ABC-06-067,1,SUBJECT COMPLETED ALL VISITS AND PROTOCOL REQUIREMENTS,COMPLETED,DISPOSITION EVENT,2007-03-15,115
ABC,DS,ABC-06-067,2,INFORMED CONSENT OBTAINED,INFORMED CONSENT OBTAINED,PROTOCOL MILESTONE,2006-11-14,-7
ABC,DS,ABC-06-068,1,SUBJECT COMPLETED ALL VISITS AND PROTOCOL REQUIREMENTS,COMPLETED,DISPOSITION EVENT,2007-03-15,114
ABC,DS,ABC-06-068,2,INFORMED CONSENT OBTAINED,INFORMED CONSENT OBTAINED,PROTOCOL MILESTONE,2006-11-16,-6
ABC,DS,ABC-06-069,1,INFORMED CONSENT OBTAINED,INFORMED CONSENT OBTAINED,PROTOCOL MILESTONE,2006-11-06,-21
ABC,DS,ABC-06-069,2,PSORIASIS FLARING/NOT RESPONDING TO DRUG,OTHER,DISPOSITION EVENT,2007-01-05,40
ABC,DS,ABC-06-070,1,SUBJECT COMPLETED ALL VISITS AND PROTOCOL REQUIREMENTS,COMPLETED,DISPOSITION EVENT,2007-03-21,113
ABC,DS,ABC-06-070,2,INFORMED CONSENT OBTAINED,INFORMED CONSENT OBTAINED,PROTOCOL MILESTONE,2006-11-17,-12
ABC,DS,ABC-06-071,1,SUBJECT COMPLETED ALL VISITS AND PROTOCOL REQUIREMENTS,COMPLETED,DISPOSITION EVENT,2007-03-21,113
ABC,DS,ABC-06-071,2,INFORMED CONSENT OBTAINED,INFORMED CONSENT OBTAINED,PROTOCOL MILESTONE,2006-11-15,-14
ABC,DS,ABC-06-072,1,SUBJECT COMPLETED ALL VISITS AND PROTOCOL REQUIREMENTS,COMPLETED,DISPOSITION EVENT,2007-03-27,113
ABC,DS,ABC-06-072,2,INFORMED CONSENT OBTAINED,INFORMED CONSENT OBTAINED,PROTOCOL MILESTONE,2006-11-28,-7
ABC,DS,ABC-06-161,1,INFORMED CONSENT OBTAINED,INFORMED CONSENT OBTAINED,PROTOCOL MILESTONE,2006-12-08,-4
ABC,DS,ABC-06-161,2,NON  RESPONSE TO DRUG - PRURITIS INTOLERABLE,OTHER,DISPOSITION EVENT,2007-01-04,24
ABC,DS,ABC-06-162,1,SUBJECT COMPLETED ALL VISITS BUT WITH MAJOR PROTOCOL VIOLATIONS,COMPLETED,DISPOSITION EVENT,2007-04-24,118
ABC,DS,ABC-06-162,2,INFORMED CONSENT OBTAINED,INFORMED CONSENT OBTAINED,PROTOCOL MILESTONE,2006-12-14,-14
ABC,DS,ABC-06-163,1,SUBJECT COMPLETED ALL VISITS AND PROTOCOL REQUIREMENTS,COMPLETED,DISPOSITION EVENT,2007-04-30,113
ABC,DS,ABC-06-163,2,INFORMED CONSENT OBTAINED,INFORMED CONSENT OBTAINED,PROTOCOL MILESTONE,2006-12-21,-18
ABC,DS,ABC-07-009,1,SUBJECT COMPLETED ALL VISITS AND PROTOCOL REQUIREMENTS,COMPLETED,DISPOSITION EVENT,2007-02-07,113
ABC,DS,ABC-07-009,2,INFORMED CONSENT OBTAINED,INFORMED CONSENT OBTAINED,PROTOCOL MILESTONE,2006-10-11,-7
ABC,DS,ABC-07-010,1,SUBJECT COMPLETED ALL VISITS AND PROTOCOL REQUIREMENTS,COMPLETED,DISPOSITION EVENT,2007-03-07,106
ABC,DS,ABC-07-010,2,INFORMED CONSENT OBTAINED,INFORMED CONSENT OBTAINED,PROTOCOL MILESTONE,2006-11-15,-7
ABC,DS,ABC-07-011,1,SUBJECT COMPLETED ALL VISITS AND PROTOCOL REQUIREMENTS,COMPLETED,DISPOSITION EVENT,2007-03-07,106
ABC,DS,ABC-07-011,2,INFORMED CONSENT OBTAINED,INFORMED CONSENT OBTAINED,PROTOCOL MILESTONE,2006-11-15,-7
ABC,DS,ABC-07-012,1,SUBJECT COMPLETED ALL VISITS AND PROTOCOL REQUIREMENTS,COMPLETED,DISPOSITION EVENT,2007-04-04,113
ABC,DS,ABC-07-012,2,INFORMED CONSENT OBTAINED,INFORMED CONSENT OBTAINED,PROTOCOL MILESTONE,2006-12-06,-7
ABC,DS,ABC-07-013,1,SUBJECT COMPLETED ALL VISITS AND PROTOCOL REQUIREMENTS,COMPLETED,DISPOSITION EVENT,2007-04-10,114
ABC,DS,ABC-07-013,2,INFORMED CONSENT OBTAINED,INFORMED CONSENT OBTAINED,PROTOCOL MILESTONE,2006-12-11,-7
ABC,DS,ABC-07-014,1,SUBJECT COMPLETED ALL VISITS AND PROTOCOL REQUIREMENTS,COMPLETED,DISPOSITION EVENT,2007-04-11,115
ABC,DS,ABC-07-014,2,INFORMED CONSENT OBTAINED,INFORMED CONSENT OBTAINED,PROTOCOL MILESTONE,2006-12-11,-7
ABC,DS,ABC-07-015,1,SUBJECT COMPLETED ALL VISITS AND PROTOCOL REQUIREMENTS,COMPLETED,DISPOSITION EVENT,2007-04-11,113
ABC,DS,ABC-07-015,2,INFORMED CONSENT OBTAINED,INFORMED CONSENT OBTAINED,PROTOCOL MILESTONE,2006-12-13,-7
ABC,DS,ABC-07-016,1,SUBJECT COMPLETED ALL VISITS AND PROTOCOL REQUIREMENTS,COMPLETED,DISPOSITION EVENT,2007-04-18,114
ABC,DS,ABC-07-016,2,INFORMED CONSENT OBTAINED,INFORMED CONSENT OBTAINED,PROTOCOL MILESTONE,2006-12-18,-8
ABC,DS,ABC-08-101,1,SUBJECT COMPLETED ALL VISITS AND PROTOCOL REQUIREMENTS,COMPLETED,DISPOSITION EVENT,2007-02-27,113
ABC,DS,ABC-08-101,2,INFORMED CONSENT OBTAINED,INFORMED CONSENT OBTAINED,PROTOCOL MILESTONE,2006-10-23,-15
ABC,DS,ABC-08-102,1,SUBJECT COMPLETED ALL VISITS AND PROTOCOL REQUIREMENTS,COMPLETED,DISPOSITION EVENT,2007-03-01,113
ABC,DS,ABC-08-102,2,INFORMED CONSENT OBTAINED,INFORMED CONSENT OBTAINED,PROTOCOL MILESTONE,2006-11-01,-8
ABC,DS,ABC-08-103,1,INFORMED CONSENT OBTAINED,INFORMED CONSENT OBTAINED,PROTOCOL MILESTONE,2006-11-02,-7
ABC,DS,ABC-08-103,2,LOST TO FOLLOW UP,OTHER,DISPOSITION EVENT,2007-03-19,131
ABC,DS,ABC-08-104,1,SUBJECT COMPLETED ALL VISITS AND PROTOCOL REQUIREMENTS,COMPLETED,DISPOSITION EVENT,2007-02-26,110
ABC,DS,ABC-08-104,2,INFORMED CONSENT OBTAINED,INFORMED CONSENT OBTAINED,PROTOCOL MILESTONE,2006-11-09,1
ABC,DS,ABC-08-105,1,INFORMED CONSENT OBTAINED,INFORMED CONSENT OBTAINED,PROTOCOL MILESTONE,2006-10-30,-14
ABC,DS,ABC-08-105,2,MOTHER TERMINALLY ILL,OTHER,DISPOSITION EVENT,2007-03-26,134
ABC,DS,ABC-08-106,1,SUBJECT COMPLETED ALL VISITS AND PROTOCOL REQUIREMENTS,COMPLETED,DISPOSITION EVENT,2007-03-12,119
ABC,DS,ABC-08-106,2,INFORMED CONSENT OBTAINED,INFORMED CONSENT OBTAINED,PROTOCOL MILESTONE,2006-10-30,-15
ABC,DS,ABC-08-107,1,INFORMED CONSENT OBTAINED,INFORMED CONSENT OBTAINED,PROTOCOL MILESTONE,2006-11-03,-18
ABC,DS,ABC-08-107,2,PATIENT DISSATISFIED,OTHER,DISPOSITION EVENT,2007-01-03,44
ABC,DS,ABC-08-108,1,INFORMED CONSENT OBTAINED,INFORMED CONSENT OBTAINED,PROTOCOL MILESTONE,2006-12-04,-18
ABC,DS,ABC-08-108,2,LOST TO FOLLOW UP,OTHER,DISPOSITION EVENT,2007-03-05,74
ABC,DS,ABC-09-017,1,SUBJECT COMPLETED ALL VISITS AND PROTOCOL REQUIREMENTS,COMPLETED,DISPOSITION EVENT,2007-02-09,115
ABC,DS,ABC-09-017,2,INFORMED CONSENT OBTAINED,INFORMED CONSENT OBTAINED,PROTOCOL MILESTONE,2006-10-06,-12
ABC,DS,ABC-09-018,1,SUBJECT COMPLETED ALL VISITS AND PROTOCOL REQUIREMENTS,COMPLETED,DISPOSITION EVENT,2007-02-09,115
ABC,DS,ABC-09-018,2,INFORMED CONSENT OBTAINED,INFORMED CONSENT OBTAINED,PROTOCOL MILESTONE,2006-10-04,-14
ABC,DS,ABC-09-019,1,SUBJECT COMPLETED ALL VISITS AND PROTOCOL REQUIREMENTS,COMPLETED,DISPOSITION EVENT,2007-02-07,113
ABC,DS,ABC-09-019,2,INFORMED CONSENT OBTAINED,INFORMED CONSENT OBTAINED,PROTOCOL MILESTONE,2006-10-06,-12
ABC,DS,ABC-09-020,1,SUBJECT COMPLETED ALL VISITS AND PROTOCOL REQUIREMENTS,COMPLETED,DISPOSITION EVENT,2007-02-07,113
ABC,DS,ABC-09-020,2,INFORMED CONSENT OBTAINED,INFORMED CONSENT OBTAINED,PROTOCOL MILESTONE,2006-10-04,-14
ABC,DS,ABC-09-021,1,INFORMED CONSENT OBTAINED,INFORMED CONSENT OBTAINED,PROTOCOL MILESTONE,2006-10-05,-27
ABC,DS,ABC-09-021,2,LOST TO FOLLOW UP,OTHER,DISPOSITION EVENT,2006-11-01,1
ABC,DS,ABC-09-022,1,INFORMED CONSENT OBTAINED,INFORMED CONSENT OBTAINED,PROTOCOL MILESTONE,2006-11-13,-3
ABC,DS,ABC-09-022,2,LOST TO FOLLOW-UP,OTHER,DISPOSITION EVENT,2006,
ABC,DS,ABC-09-023,1,SUBJECT COMPLETED ALL VISITS AND PROTOCOL REQUIREMENTS,COMPLETED,DISPOSITION EVENT,2007-03-12,117
ABC,DS,ABC-09-023,2,INFORMED CONSENT OBTAINED,INFORMED CONSENT OBTAINED,PROTOCOL MILESTONE,2006-11-14,-2
ABC,DS,ABC-09-024,1,SUBJECT COMPLETED ALL VISITS AND PROTOCOL REQUIREMENTS,COMPLETED,DISPOSITION EVENT,2007-03-09,114
ABC,DS,ABC-09-024,2,INFORMED CONSENT OBTAINED,INFORMED CONSENT OBTAINED,PROTOCOL MILESTONE,2006-11-09,-7
ABC,DS,ABC-09-137,1,SUBJECT COMPLETED ALL VISITS AND PROTOCOL REQUIREMENTS,COMPLETED,DISPOSITION EVENT,2007-03-19,119
ABC,DS,ABC-09-137,2,INFORMED CONSENT OBTAINED,INFORMED CONSENT OBTAINED,PROTOCOL MILESTONE,2006-11-17,-4
ABC,DS,ABC-09-138,1,SUBJECT COMPLETED ALL VISITS AND PROTOCOL REQUIREMENTS,COMPLETED,DISPOSITION EVENT,2007-03-15,115
ABC,DS,ABC-09-138,2,INFORMED CONSENT OBTAINED,INFORMED CONSENT OBTAINED,PROTOCOL MILESTONE,2006-11-15,-6
ABC,DS,ABC-09-139,1,SUBJECT COMPLETED ALL VISITS AND PROTOCOL REQUIREMENTS,COMPLETED,DISPOSITION EVENT,2007-03-20,120
ABC,DS,ABC-09-139,2,INFORMED CONSENT OBTAINED,INFORMED CONSENT OBTAINED,PROTOCOL MILESTONE,2006-11-17,-4
ABC,DS,ABC-09-140,1,SUBJECT COMPLETED ALL VISITS AND PROTOCOL REQUIREMENTS,COMPLETED,DISPOSITION EVENT,2007-03-20,113
ABC,DS,ABC-09-140,2,INFORMED CONSENT OBTAINED,INFORMED CONSENT OBTAINED,PROTOCOL MILESTONE,2006-11-22,-6
